,run,subid,charName,country,age,gender,englishNative,ethnicity,education,religionChild,religionNow,job,comments,trialNum,bgColor,capacity,capWording,hoverTime,rt,response,responseNum,country_selfrep
1,us_run_02,us_run_02_1,robot,us,25,male,yes_only,white,college_bachDegree,christianity_catholic,christianity_catholic,Mechanical Engineer,NA,1,#c2e9f5,beliefs,have beliefs -- like when you think something is true,0,10126,1,1,USA
2,us_run_02,us_run_02_1,robot,us,25,male,yes_only,white,college_bachDegree,christianity_catholic,christianity_catholic,Mechanical Engineer,NA,2,#c3e5b5,fear,feel scared,0,3239,0,0,USA
3,us_run_02,us_run_02_1,robot,us,25,male,yes_only,white,college_bachDegree,christianity_catholic,christianity_catholic,Mechanical Engineer,NA,3,#f0d9a2,self_aware,be aware of itself,0,2314,6,6,USA
4,us_run_02,us_run_02_1,robot,us,25,male,yes_only,white,college_bachDegree,christianity_catholic,christianity_catholic,Mechanical Engineer,NA,4,#94ebda,remembering,remember things,0,1077,6,6,USA
5,us_run_02,us_run_02_1,robot,us,25,male,yes_only,white,college_bachDegree,christianity_catholic,christianity_catholic,Mechanical Engineer,NA,5,#97eca5,goal,have goals -- like when you're working hard to do something or make something happen,0,2873,3,3,USA
6,us_run_02,us_run_02_1,robot,us,25,male,yes_only,white,college_bachDegree,christianity_catholic,christianity_catholic,Mechanical Engineer,NA,6,#b5eaa1,odors,smell things,0,1639,0,0,USA
7,us_run_02,us_run_02_1,robot,us,25,male,yes_only,white,college_bachDegree,christianity_catholic,christianity_catholic,Mechanical Engineer,NA,7,#bfd6fa,personality,have a personality -- like when someone is shy and somebody else is silly,0,2176,4,4,USA
8,us_run_02,us_run_02_1,robot,us,25,male,yes_only,white,college_bachDegree,christianity_catholic,christianity_catholic,Mechanical Engineer,NA,8,#e3df8e,temperature,sense temperatures,0,2013,6,6,USA
9,us_run_02,us_run_02_1,robot,us,25,male,yes_only,white,college_bachDegree,christianity_catholic,christianity_catholic,Mechanical Engineer,NA,9,#9be4c0,pleasure,feel pleasure -- like when something feels really good,0,2926,0,0,USA
10,us_run_02,us_run_02_1,robot,us,25,male,yes_only,white,college_bachDegree,christianity_catholic,christianity_catholic,Mechanical Engineer,NA,10,#b4dbe7,tired,feel tired,0,1545,0,0,USA
11,us_run_02,us_run_02_1,robot,us,25,male,yes_only,white,college_bachDegree,christianity_catholic,christianity_catholic,Mechanical Engineer,NA,11,#fddbd0,choices,make choices,0,1689,6,6,USA
12,us_run_02,us_run_02_1,robot,us,25,male,yes_only,white,college_bachDegree,christianity_catholic,christianity_catholic,Mechanical Engineer,NA,12,#f0d27e,embarrassed,feel embarrassed,0,1411,0,0,USA
13,us_run_02,us_run_02_1,robot,us,25,male,yes_only,white,college_bachDegree,christianity_catholic,christianity_catholic,Mechanical Engineer,NA,13,#d1e48e,guilt,feel guilty,0,1062,0,0,USA
14,us_run_02,us_run_02_1,robot,us,25,male,yes_only,white,college_bachDegree,christianity_catholic,christianity_catholic,Mechanical Engineer,NA,14,#64f8f4,communicating,communicate with somebody else,0,2634,6,6,USA
15,us_run_02,us_run_02_1,robot,us,25,male,yes_only,white,college_bachDegree,christianity_catholic,christianity_catholic,Mechanical Engineer,NA,15,#3eeaef,emo_recog,understand how somebody else is feeling,0,2057,1,1,USA
16,us_run_02,us_run_02_1,robot,us,25,male,yes_only,white,college_bachDegree,christianity_catholic,christianity_catholic,Mechanical Engineer,NA,16,#bae6c8,morality,know what's nice and what's mean,0,1819,1,1,USA
17,us_run_02,us_run_02_1,robot,us,25,male,yes_only,white,college_bachDegree,christianity_catholic,christianity_catholic,Mechanical Engineer,NA,17,#fde096,love,feel love,0,1441,0,0,USA
18,us_run_02,us_run_02_1,robot,us,25,male,yes_only,white,college_bachDegree,christianity_catholic,christianity_catholic,Mechanical Engineer,NA,18,#aceab4,pride,feel proud,0,1863,0,0,USA
19,us_run_02,us_run_02_1,robot,us,25,male,yes_only,white,college_bachDegree,christianity_catholic,christianity_catholic,Mechanical Engineer,NA,19,#f2cdb9,intentions,make plans,0,7633,0,0,USA
20,us_run_02,us_run_02_1,robot,us,25,male,yes_only,white,college_bachDegree,christianity_catholic,christianity_catholic,Mechanical Engineer,NA,20,#84eced,depressed,feel sad,0,2571,0,0,USA
21,us_run_02,us_run_02_1,robot,us,25,male,yes_only,white,college_bachDegree,christianity_catholic,christianity_catholic,Mechanical Engineer,NA,21,#a9e7e4,happy,feel happy,0,620,0,0,USA
22,us_run_02,us_run_02_1,robot,us,25,male,yes_only,white,college_bachDegree,christianity_catholic,christianity_catholic,Mechanical Engineer,NA,22,#8cf2c3,seeing,see things,0,1748,6,6,USA
23,us_run_02,us_run_02_1,robot,us,25,male,yes_only,white,college_bachDegree,christianity_catholic,christianity_catholic,Mechanical Engineer,NA,23,#dee7bc,angry,get angry,0,1389,0,0,USA
24,us_run_02,us_run_02_1,robot,us,25,male,yes_only,white,college_bachDegree,christianity_catholic,christianity_catholic,Mechanical Engineer,NA,24,#e3d3af,recognizing,recognize somebody else,0,1458,6,6,USA
25,us_run_02,us_run_02_1,robot,us,25,male,yes_only,white,college_bachDegree,christianity_catholic,christianity_catholic,Mechanical Engineer,NA,25,#f3d0d9,safe,feel safe,0,2233,5,5,USA
26,us_run_02,us_run_02_1,robot,us,25,male,yes_only,white,college_bachDegree,christianity_catholic,christianity_catholic,Mechanical Engineer,NA,26,#d5d0fa,pain,feel pain,0,1278,0,0,USA
27,us_run_02,us_run_02_1,robot,us,25,male,yes_only,white,college_bachDegree,christianity_catholic,christianity_catholic,Mechanical Engineer,NA,27,#ead1ec,calm,feel calm,0,1614,0,0,USA
28,us_run_02,us_run_02_1,robot,us,25,male,yes_only,white,college_bachDegree,christianity_catholic,christianity_catholic,Mechanical Engineer,NA,28,#d0d9ae,joy,feel joy,0,1712,0,0,USA
29,us_run_02,us_run_02_1,robot,us,25,male,yes_only,white,college_bachDegree,christianity_catholic,christianity_catholic,Mechanical Engineer,NA,29,#79e3f9,self_restraint,have self-control -- like when you stop yourself from doing something you shouldn't do,0,6926,0,0,USA
30,us_run_02,us_run_02_1,robot,us,25,male,yes_only,white,college_bachDegree,christianity_catholic,christianity_catholic,Mechanical Engineer,NA,30,#cde8e2,sounds,hear sounds,0,3934,6,6,USA
31,us_run_02,us_run_02_1,robot,us,25,male,yes_only,white,college_bachDegree,christianity_catholic,christianity_catholic,Mechanical Engineer,NA,31,#f3c5fa,disrespected,get hurt feelings,0,1218,0,0,USA
32,us_run_02,us_run_02_1,robot,us,25,male,yes_only,white,college_bachDegree,christianity_catholic,christianity_catholic,Mechanical Engineer,NA,32,#a9f2ce,nauseated,feel sick -- like when you feel like you might throw up,0,1193,0,0,USA
33,us_run_02,us_run_02_1,robot,us,25,male,yes_only,white,college_bachDegree,christianity_catholic,christianity_catholic,Mechanical Engineer,NA,33,#cae5a1,computations,do math,0,1500,6,6,USA
34,us_run_02,us_run_02_1,robot,us,25,male,yes_only,white,college_bachDegree,christianity_catholic,christianity_catholic,Mechanical Engineer,NA,34,#dedfa2,hungry,get hungry,0,1442,0,0,USA
35,us_run_02,us_run_02_1,robot,us,25,male,yes_only,white,college_bachDegree,christianity_catholic,christianity_catholic,Mechanical Engineer,NA,35,#bce98d,free_will,decide what to do,1,57384,6,6,USA
36,us_run_02,us_run_02_1,robot,us,25,male,yes_only,white,college_bachDegree,christianity_catholic,christianity_catholic,Mechanical Engineer,NA,36,#d0e0c8,conscious,be aware of things,0,2115,6,6,USA
37,us_run_02,us_run_02_1,robot,us,25,male,yes_only,white,college_bachDegree,christianity_catholic,christianity_catholic,Mechanical Engineer,NA,37,#f2e1bc,thoughts,have thoughts,0,918,6,6,USA
38,us_run_02,us_run_02_1,robot,us,25,male,yes_only,white,college_bachDegree,christianity_catholic,christianity_catholic,Mechanical Engineer,NA,38,#e3dbc8,desires,have desires -- like when you really want something,0,3056,4,4,USA
39,us_run_02,us_run_02_1,robot,us,25,male,yes_only,white,college_bachDegree,christianity_catholic,christianity_catholic,Mechanical Engineer,NA,39,#5ef2da,reasoning,figure out how to do things,0,1223,6,6,USA
40,us_run_02,us_run_02_1,robot,us,25,male,yes_only,white,college_bachDegree,christianity_catholic,christianity_catholic,Mechanical Engineer,NA,40,#a7dcf9,depth,sense whether something is close by or far away,0,1482,6,6,USA
41,us_run_02,us_run_02_2,beetle,us,30,male,yes_only,white,hs_diploma,none,none,Self-employed,NA,1,#fddbd0,remembering,remember things,1388,2604,2,2,United States
42,us_run_02,us_run_02_2,beetle,us,30,male,yes_only,white,hs_diploma,none,none,Self-employed,NA,2,#a9e7e4,depth,sense whether something is close by or far away,0,2035,4,4,United States
43,us_run_02,us_run_02_2,beetle,us,30,male,yes_only,white,hs_diploma,none,none,Self-employed,NA,3,#f3d0d9,odors,smell things,0,2059,1,1,United States
44,us_run_02,us_run_02_2,beetle,us,30,male,yes_only,white,hs_diploma,none,none,Self-employed,NA,4,#f0d9a2,pleasure,feel pleasure -- like when something feels really good,0,1387,0,0,United States
45,us_run_02,us_run_02_2,beetle,us,30,male,yes_only,white,hs_diploma,none,none,Self-employed,NA,5,#5ef2da,computations,do math,0,1077,0,0,United States
46,us_run_02,us_run_02_2,beetle,us,30,male,yes_only,white,hs_diploma,none,none,Self-employed,NA,6,#c2e9f5,pride,feel proud,0,1054,0,0,United States
47,us_run_02,us_run_02_2,beetle,us,30,male,yes_only,white,hs_diploma,none,none,Self-employed,NA,7,#d2dcee,embarrassed,feel embarrassed,0,1002,0,0,United States
48,us_run_02,us_run_02_2,beetle,us,30,male,yes_only,white,hs_diploma,none,none,Self-employed,NA,8,#9be4c0,tired,feel tired,0,1315,3,3,United States
49,us_run_02,us_run_02_2,beetle,us,30,male,yes_only,white,hs_diploma,none,none,Self-employed,NA,9,#3eeaef,depressed,feel sad,0,1458,0,0,United States
50,us_run_02,us_run_02_2,beetle,us,30,male,yes_only,white,hs_diploma,none,none,Self-employed,NA,10,#fde096,love,feel love,0,1743,0,0,United States
51,us_run_02,us_run_02_2,beetle,us,30,male,yes_only,white,hs_diploma,none,none,Self-employed,NA,11,#f3c5fa,angry,get angry,0,1967,0,0,United States
52,us_run_02,us_run_02_2,beetle,us,30,male,yes_only,white,hs_diploma,none,none,Self-employed,NA,12,#f2cdb9,goal,have goals -- like when you're working hard to do something or make something happen,0,3080,1,1,United States
53,us_run_02,us_run_02_2,beetle,us,30,male,yes_only,white,hs_diploma,none,none,Self-employed,NA,13,#bfd6fa,thoughts,have thoughts,0,1881,2,2,United States
54,us_run_02,us_run_02_2,beetle,us,30,male,yes_only,white,hs_diploma,none,none,Self-employed,NA,14,#bce98d,disrespected,get hurt feelings,0,996,0,0,United States
55,us_run_02,us_run_02_2,beetle,us,30,male,yes_only,white,hs_diploma,none,none,Self-employed,NA,15,#84eced,sounds,hear sounds,0,1624,4,4,United States
56,us_run_02,us_run_02_2,beetle,us,30,male,yes_only,white,hs_diploma,none,none,Self-employed,NA,16,#b4dbe7,joy,feel joy,0,1274,0,0,United States
57,us_run_02,us_run_02_2,beetle,us,30,male,yes_only,white,hs_diploma,none,none,Self-employed,NA,17,#dee7bc,nauseated,feel sick -- like when you feel like you might throw up,0,2430,1,1,United States
58,us_run_02,us_run_02_2,beetle,us,30,male,yes_only,white,hs_diploma,none,none,Self-employed,NA,18,#97eca5,free_will,decide what to do,0,1986,3,3,United States
59,us_run_02,us_run_02_2,beetle,us,30,male,yes_only,white,hs_diploma,none,none,Self-employed,NA,19,#f0d27e,pain,feel pain,0,2023,5,5,United States
60,us_run_02,us_run_02_2,beetle,us,30,male,yes_only,white,hs_diploma,none,none,Self-employed,NA,20,#cae5a1,seeing,see things,0,1626,5,5,United States
61,us_run_02,us_run_02_2,beetle,us,30,male,yes_only,white,hs_diploma,none,none,Self-employed,NA,21,#a7dcf9,intentions,make plans,0,2145,1,1,United States
62,us_run_02,us_run_02_2,beetle,us,30,male,yes_only,white,hs_diploma,none,none,Self-employed,NA,22,#fdcc93,beliefs,have beliefs -- like when you think something is true,0,1975,0,0,United States
63,us_run_02,us_run_02_2,beetle,us,30,male,yes_only,white,hs_diploma,none,none,Self-employed,NA,23,#a9f2ce,hungry,get hungry,0,1557,6,6,United States
64,us_run_02,us_run_02_2,beetle,us,30,male,yes_only,white,hs_diploma,none,none,Self-employed,NA,24,#8cf2c3,personality,have a personality -- like when someone is shy and somebody else is silly,0,1546,0,0,United States
65,us_run_02,us_run_02_2,beetle,us,30,male,yes_only,white,hs_diploma,none,none,Self-employed,NA,25,#cde8e2,reasoning,figure out how to do things,0,1969,2,2,United States
66,us_run_02,us_run_02_2,beetle,us,30,male,yes_only,white,hs_diploma,none,none,Self-employed,NA,26,#79e3f9,happy,feel happy,0,1230,0,0,United States
67,us_run_02,us_run_02_2,beetle,us,30,male,yes_only,white,hs_diploma,none,none,Self-employed,NA,27,#94ebda,safe,feel safe,0,1829,3,3,United States
68,us_run_02,us_run_02_2,beetle,us,30,male,yes_only,white,hs_diploma,none,none,Self-employed,NA,28,#ead1ec,calm,feel calm,0,1744,0,0,United States
69,us_run_02,us_run_02_2,beetle,us,30,male,yes_only,white,hs_diploma,none,none,Self-employed,NA,29,#c3e5b5,conscious,be aware of things,0,2138,2,2,United States
70,us_run_02,us_run_02_2,beetle,us,30,male,yes_only,white,hs_diploma,none,none,Self-employed,NA,30,#bae6c8,emo_recog,understand how somebody else is feeling,0,2070,0,0,United States
71,us_run_02,us_run_02_2,beetle,us,30,male,yes_only,white,hs_diploma,none,none,Self-employed,NA,31,#d5d0fa,choices,make choices,0,1258,2,2,United States
72,us_run_02,us_run_02_2,beetle,us,30,male,yes_only,white,hs_diploma,none,none,Self-employed,NA,32,#d1e48e,desires,have desires -- like when you really want something,0,2079,2,2,United States
73,us_run_02,us_run_02_2,beetle,us,30,male,yes_only,white,hs_diploma,none,none,Self-employed,NA,33,#d0d9ae,self_aware,be aware of itself,0,1580,0,0,United States
74,us_run_02,us_run_02_2,beetle,us,30,male,yes_only,white,hs_diploma,none,none,Self-employed,NA,34,#e3df8e,communicating,communicate with somebody else,0,1272,0,0,United States
75,us_run_02,us_run_02_2,beetle,us,30,male,yes_only,white,hs_diploma,none,none,Self-employed,NA,35,#dedfa2,temperature,sense temperatures,0,2215,5,5,United States
76,us_run_02,us_run_02_2,beetle,us,30,male,yes_only,white,hs_diploma,none,none,Self-employed,NA,36,#b5eaa1,morality,know what's nice and what's mean,0,1534,0,0,United States
77,us_run_02,us_run_02_2,beetle,us,30,male,yes_only,white,hs_diploma,none,none,Self-employed,NA,37,#e3d3af,recognizing,recognize somebody else,0,2155,0,0,United States
78,us_run_02,us_run_02_2,beetle,us,30,male,yes_only,white,hs_diploma,none,none,Self-employed,NA,38,#aceab4,guilt,feel guilty,0,906,0,0,United States
79,us_run_02,us_run_02_2,beetle,us,30,male,yes_only,white,hs_diploma,none,none,Self-employed,NA,39,#d0e0c8,fear,feel scared,0,2759,1,1,United States
80,us_run_02,us_run_02_2,beetle,us,30,male,yes_only,white,hs_diploma,none,none,Self-employed,NA,40,#e3dbc8,self_restraint,have self-control -- like when you stop yourself from doing something you shouldn't do,0,2065,0,0,United States
81,us_run_02b,us_run_02b_1,beetle,us,38,female,yes_only,black,college_assocDegree,none,none,self employed,NA,1,#f0d9a2,joy,feel joy,0,4963,5,5,United States
82,us_run_02b,us_run_02b_1,beetle,us,38,female,yes_only,black,college_assocDegree,none,none,self employed,NA,2,#bce98d,pain,feel pain,0,2420,6,6,United States
83,us_run_02b,us_run_02b_1,beetle,us,38,female,yes_only,black,college_assocDegree,none,none,self employed,NA,3,#cae5a1,sounds,hear sounds,0,18319,6,6,United States
84,us_run_02b,us_run_02b_1,beetle,us,38,female,yes_only,black,college_assocDegree,none,none,self employed,NA,4,#a9f2ce,pleasure,feel pleasure -- like when something feels really good,0,3238,6,6,United States
85,us_run_02b,us_run_02b_1,beetle,us,38,female,yes_only,black,college_assocDegree,none,none,self employed,NA,5,#fde096,thoughts,have thoughts,0,2126,6,6,United States
86,us_run_02b,us_run_02b_1,beetle,us,38,female,yes_only,black,college_assocDegree,none,none,self employed,NA,6,#d0e0c8,depressed,feel sad,0,3628,5,5,United States
87,us_run_02b,us_run_02b_1,beetle,us,38,female,yes_only,black,college_assocDegree,none,none,self employed,NA,7,#c2e9f5,free_will,decide what to do,0,1917,6,6,United States
88,us_run_02b,us_run_02b_1,beetle,us,38,female,yes_only,black,college_assocDegree,none,none,self employed,NA,8,#cde8e2,communicating,communicate with somebody else,0,6797,3,3,United States
89,us_run_02b,us_run_02b_1,beetle,us,38,female,yes_only,black,college_assocDegree,none,none,self employed,NA,9,#dee7bc,morality,know what's nice and what's mean,0,5093,4,4,United States
90,us_run_02b,us_run_02b_1,beetle,us,38,female,yes_only,black,college_assocDegree,none,none,self employed,NA,10,#d2dcee,pride,feel proud,0,2471,4,4,United States
91,us_run_02b,us_run_02b_1,beetle,us,38,female,yes_only,black,college_assocDegree,none,none,self employed,NA,11,#5ef2da,beliefs,have beliefs -- like when you think something is true,0,3747,2,2,United States
92,us_run_02b,us_run_02b_1,beetle,us,38,female,yes_only,black,college_assocDegree,none,none,self employed,NA,12,#8cf2c3,odors,smell things,0,3710,3,3,United States
93,us_run_02b,us_run_02b_1,beetle,us,38,female,yes_only,black,college_assocDegree,none,none,self employed,NA,13,#9be4c0,love,feel love,0,2445,2,2,United States
94,us_run_02b,us_run_02b_1,beetle,us,38,female,yes_only,black,college_assocDegree,none,none,self employed,NA,14,#b4dbe7,hungry,get hungry,0,1837,6,6,United States
95,us_run_02b,us_run_02b_1,beetle,us,38,female,yes_only,black,college_assocDegree,none,none,self employed,NA,15,#dedfa2,fear,feel scared,0,1838,6,6,United States
96,us_run_02b,us_run_02b_1,beetle,us,38,female,yes_only,black,college_assocDegree,none,none,self employed,NA,16,#f0d27e,guilt,feel guilty,0,2342,0,0,United States
97,us_run_02b,us_run_02b_1,beetle,us,38,female,yes_only,black,college_assocDegree,none,none,self employed,NA,17,#bfd6fa,embarrassed,feel embarrassed,0,1116,0,0,United States
98,us_run_02b,us_run_02b_1,beetle,us,38,female,yes_only,black,college_assocDegree,none,none,self employed,NA,18,#d0d9ae,desires,have desires -- like when you really want something,0,3749,3,3,United States
99,us_run_02b,us_run_02b_1,beetle,us,38,female,yes_only,black,college_assocDegree,none,none,self employed,NA,19,#84eced,depth,sense whether something is close by or far away,0,5437,5,5,United States
100,us_run_02b,us_run_02b_1,beetle,us,38,female,yes_only,black,college_assocDegree,none,none,self employed,NA,20,#d1e48e,nauseated,feel sick -- like when you feel like you might throw up,0,4702,5,5,United States
101,us_run_02b,us_run_02b_1,beetle,us,38,female,yes_only,black,college_assocDegree,none,none,self employed,NA,21,#94ebda,angry,get angry,0,1862,0,0,United States
102,us_run_02b,us_run_02b_1,beetle,us,38,female,yes_only,black,college_assocDegree,none,none,self employed,NA,22,#f3d0d9,goal,have goals -- like when you're working hard to do something or make something happen,0,3237,4,4,United States
103,us_run_02b,us_run_02b_1,beetle,us,38,female,yes_only,black,college_assocDegree,none,none,self employed,NA,23,#f3c5fa,seeing,see things,0,2740,6,6,United States
104,us_run_02b,us_run_02b_1,beetle,us,38,female,yes_only,black,college_assocDegree,none,none,self employed,NA,24,#bae6c8,self_restraint,have self-control -- like when you stop yourself from doing something you shouldn't do,0,4350,1,1,United States
105,us_run_02b,us_run_02b_1,beetle,us,38,female,yes_only,black,college_assocDegree,none,none,self employed,NA,25,#ead1ec,intentions,make plans,0,2069,0,0,United States
106,us_run_02b,us_run_02b_1,beetle,us,38,female,yes_only,black,college_assocDegree,none,none,self employed,NA,26,#aceab4,choices,make choices,0,2980,5,5,United States
107,us_run_02b,us_run_02b_1,beetle,us,38,female,yes_only,black,college_assocDegree,none,none,self employed,NA,27,#97eca5,safe,feel safe,0,1982,5,5,United States
108,us_run_02b,us_run_02b_1,beetle,us,38,female,yes_only,black,college_assocDegree,none,none,self employed,NA,28,#a9e7e4,tired,feel tired,0,1372,5,5,United States
109,us_run_02b,us_run_02b_1,beetle,us,38,female,yes_only,black,college_assocDegree,none,none,self employed,NA,29,#79e3f9,reasoning,figure out how to do things,0,1710,5,5,United States
110,us_run_02b,us_run_02b_1,beetle,us,38,female,yes_only,black,college_assocDegree,none,none,self employed,NA,30,#fdcc93,remembering,remember things,0,1854,5,5,United States
111,us_run_02b,us_run_02b_1,beetle,us,38,female,yes_only,black,college_assocDegree,none,none,self employed,NA,31,#d5d0fa,recognizing,recognize somebody else,0,2294,2,2,United States
112,us_run_02b,us_run_02b_1,beetle,us,38,female,yes_only,black,college_assocDegree,none,none,self employed,NA,32,#3eeaef,computations,do math,0,1646,0,0,United States
113,us_run_02b,us_run_02b_1,beetle,us,38,female,yes_only,black,college_assocDegree,none,none,self employed,NA,33,#f2e1bc,temperature,sense temperatures,0,2412,5,5,United States
114,us_run_02b,us_run_02b_1,beetle,us,38,female,yes_only,black,college_assocDegree,none,none,self employed,NA,34,#e3df8e,emo_recog,understand how somebody else is feeling,0,3374,0,0,United States
115,us_run_02b,us_run_02b_1,beetle,us,38,female,yes_only,black,college_assocDegree,none,none,self employed,NA,35,#e3dbc8,personality,have a personality -- like when someone is shy and somebody else is silly,0,4390,1,1,United States
116,us_run_02b,us_run_02b_1,beetle,us,38,female,yes_only,black,college_assocDegree,none,none,self employed,NA,36,#b5eaa1,conscious,be aware of things,0,2670,5,5,United States
117,us_run_02b,us_run_02b_1,beetle,us,38,female,yes_only,black,college_assocDegree,none,none,self employed,NA,37,#fddbd0,happy,feel happy,0,1314,5,5,United States
118,us_run_02b,us_run_02b_1,beetle,us,38,female,yes_only,black,college_assocDegree,none,none,self employed,NA,38,#64f8f4,self_aware,be aware of itself,0,1190,5,5,United States
119,us_run_02b,us_run_02b_1,beetle,us,38,female,yes_only,black,college_assocDegree,none,none,self employed,NA,39,#a7dcf9,disrespected,get hurt feelings,0,2046,0,0,United States
120,us_run_02b,us_run_02b_1,beetle,us,38,female,yes_only,black,college_assocDegree,none,none,self employed,NA,40,#c3e5b5,calm,feel calm,0,4342,5,5,United States
121,us_run_02b,us_run_02b_2,beetle,us,34,female,yes_only,asian_eastAsian,grad_degree,none,none,writer,No,1,#3eeaef,recognizing,recognize somebody else,0,2044,0,0,United States of America
122,us_run_02b,us_run_02b_2,beetle,us,34,female,yes_only,asian_eastAsian,grad_degree,none,none,writer,No,2,#d0d9ae,remembering,remember things,0,2312,4,4,United States of America
123,us_run_02b,us_run_02b_2,beetle,us,34,female,yes_only,asian_eastAsian,grad_degree,none,none,writer,No,3,#fddbd0,fear,feel scared,0,3824,4,4,United States of America
124,us_run_02b,us_run_02b_2,beetle,us,34,female,yes_only,asian_eastAsian,grad_degree,none,none,writer,No,4,#5ef2da,conscious,be aware of things,0,1243,6,6,United States of America
125,us_run_02b,us_run_02b_2,beetle,us,34,female,yes_only,asian_eastAsian,grad_degree,none,none,writer,No,5,#fde096,communicating,communicate with somebody else,0,5763,0,0,United States of America
126,us_run_02b,us_run_02b_2,beetle,us,34,female,yes_only,asian_eastAsian,grad_degree,none,none,writer,No,6,#d1e48e,calm,feel calm,0,1989,4,4,United States of America
127,us_run_02b,us_run_02b_2,beetle,us,34,female,yes_only,asian_eastAsian,grad_degree,none,none,writer,No,7,#a7dcf9,pain,feel pain,0,2104,2,2,United States of America
128,us_run_02b,us_run_02b_2,beetle,us,34,female,yes_only,asian_eastAsian,grad_degree,none,none,writer,No,8,#8cf2c3,self_aware,be aware of itself,0,4029,2,2,United States of America
129,us_run_02b,us_run_02b_2,beetle,us,34,female,yes_only,asian_eastAsian,grad_degree,none,none,writer,No,9,#f0d9a2,emo_recog,understand how somebody else is feeling,0,1484,0,0,United States of America
130,us_run_02b,us_run_02b_2,beetle,us,34,female,yes_only,asian_eastAsian,grad_degree,none,none,writer,No,10,#d0e0c8,hungry,get hungry,0,1467,6,6,United States of America
131,us_run_02b,us_run_02b_2,beetle,us,34,female,yes_only,asian_eastAsian,grad_degree,none,none,writer,No,11,#79e3f9,goal,have goals -- like when you're working hard to do something or make something happen,0,1381,6,6,United States of America
132,us_run_02b,us_run_02b_2,beetle,us,34,female,yes_only,asian_eastAsian,grad_degree,none,none,writer,No,12,#b4dbe7,tired,feel tired,0,6291,5,5,United States of America
133,us_run_02b,us_run_02b_2,beetle,us,34,female,yes_only,asian_eastAsian,grad_degree,none,none,writer,No,13,#64f8f4,disrespected,get hurt feelings,0,1374,0,0,United States of America
134,us_run_02b,us_run_02b_2,beetle,us,34,female,yes_only,asian_eastAsian,grad_degree,none,none,writer,No,14,#e3dbc8,reasoning,figure out how to do things,0,2547,4,4,United States of America
135,us_run_02b,us_run_02b_2,beetle,us,34,female,yes_only,asian_eastAsian,grad_degree,none,none,writer,No,15,#c3e5b5,computations,do math,0,1534,0,0,United States of America
136,us_run_02b,us_run_02b_2,beetle,us,34,female,yes_only,asian_eastAsian,grad_degree,none,none,writer,No,16,#bae6c8,safe,feel safe,0,2681,4,4,United States of America
137,us_run_02b,us_run_02b_2,beetle,us,34,female,yes_only,asian_eastAsian,grad_degree,none,none,writer,No,17,#dee7bc,pleasure,feel pleasure -- like when something feels really good,0,2428,1,1,United States of America
138,us_run_02b,us_run_02b_2,beetle,us,34,female,yes_only,asian_eastAsian,grad_degree,none,none,writer,No,18,#e3df8e,beliefs,have beliefs -- like when you think something is true,0,1549,0,0,United States of America
139,us_run_02b,us_run_02b_2,beetle,us,34,female,yes_only,asian_eastAsian,grad_degree,none,none,writer,No,19,#f3c5fa,choices,make choices,0,2464,4,4,United States of America
140,us_run_02b,us_run_02b_2,beetle,us,34,female,yes_only,asian_eastAsian,grad_degree,none,none,writer,No,20,#c2e9f5,temperature,sense temperatures,0,1487,6,6,United States of America
141,us_run_02b,us_run_02b_2,beetle,us,34,female,yes_only,asian_eastAsian,grad_degree,none,none,writer,No,21,#97eca5,love,feel love,0,1897,0,0,United States of America
142,us_run_02b,us_run_02b_2,beetle,us,34,female,yes_only,asian_eastAsian,grad_degree,none,none,writer,No,22,#bfd6fa,seeing,see things,0,3164,6,6,United States of America
143,us_run_02b,us_run_02b_2,beetle,us,34,female,yes_only,asian_eastAsian,grad_degree,none,none,writer,No,23,#9be4c0,free_will,decide what to do,0,2818,5,5,United States of America
144,us_run_02b,us_run_02b_2,beetle,us,34,female,yes_only,asian_eastAsian,grad_degree,none,none,writer,No,24,#f0d27e,sounds,hear sounds,0,1266,6,6,United States of America
145,us_run_02b,us_run_02b_2,beetle,us,34,female,yes_only,asian_eastAsian,grad_degree,none,none,writer,No,25,#bce98d,morality,know what's nice and what's mean,0,1288,0,0,United States of America
146,us_run_02b,us_run_02b_2,beetle,us,34,female,yes_only,asian_eastAsian,grad_degree,none,none,writer,No,26,#b5eaa1,thoughts,have thoughts,0,3303,3,3,United States of America
147,us_run_02b,us_run_02b_2,beetle,us,34,female,yes_only,asian_eastAsian,grad_degree,none,none,writer,No,27,#f2cdb9,desires,have desires -- like when you really want something,0,2792,2,2,United States of America
148,us_run_02b,us_run_02b_2,beetle,us,34,female,yes_only,asian_eastAsian,grad_degree,none,none,writer,No,28,#dedfa2,embarrassed,feel embarrassed,0,1154,0,0,United States of America
149,us_run_02b,us_run_02b_2,beetle,us,34,female,yes_only,asian_eastAsian,grad_degree,none,none,writer,No,29,#84eced,personality,have a personality -- like when someone is shy and somebody else is silly,0,1429,0,0,United States of America
150,us_run_02b,us_run_02b_2,beetle,us,34,female,yes_only,asian_eastAsian,grad_degree,none,none,writer,No,30,#a9f2ce,nauseated,feel sick -- like when you feel like you might throw up,0,3746,4,4,United States of America
151,us_run_02b,us_run_02b_2,beetle,us,34,female,yes_only,asian_eastAsian,grad_degree,none,none,writer,No,31,#e3d3af,happy,feel happy,0,1266,0,0,United States of America
152,us_run_02b,us_run_02b_2,beetle,us,34,female,yes_only,asian_eastAsian,grad_degree,none,none,writer,No,32,#fdcc93,depth,sense whether something is close by or far away,0,3130,6,6,United States of America
153,us_run_02b,us_run_02b_2,beetle,us,34,female,yes_only,asian_eastAsian,grad_degree,none,none,writer,No,33,#94ebda,depressed,feel sad,0,1221,0,0,United States of America
154,us_run_02b,us_run_02b_2,beetle,us,34,female,yes_only,asian_eastAsian,grad_degree,none,none,writer,No,34,#d2dcee,intentions,make plans,0,1205,0,0,United States of America
155,us_run_02b,us_run_02b_2,beetle,us,34,female,yes_only,asian_eastAsian,grad_degree,none,none,writer,No,35,#f3d0d9,joy,feel joy,0,1176,0,0,United States of America
156,us_run_02b,us_run_02b_2,beetle,us,34,female,yes_only,asian_eastAsian,grad_degree,none,none,writer,No,36,#d5d0fa,pride,feel proud,0,1083,0,0,United States of America
157,us_run_02b,us_run_02b_2,beetle,us,34,female,yes_only,asian_eastAsian,grad_degree,none,none,writer,No,37,#aceab4,angry,get angry,0,3269,1,1,United States of America
158,us_run_02b,us_run_02b_2,beetle,us,34,female,yes_only,asian_eastAsian,grad_degree,none,none,writer,No,38,#ead1ec,odors,smell things,0,1469,5,5,United States of America
159,us_run_02b,us_run_02b_2,beetle,us,34,female,yes_only,asian_eastAsian,grad_degree,none,none,writer,No,39,#a9e7e4,self_restraint,have self-control -- like when you stop yourself from doing something you shouldn't do,0,2314,1,1,United States of America
160,us_run_02b,us_run_02b_2,beetle,us,34,female,yes_only,asian_eastAsian,grad_degree,none,none,writer,No,40,#cde8e2,guilt,feel guilty,0,948,0,0,United States of America
161,us_run_02b,us_run_02b_3,robot,us,22,male,yes_only,white,college_bachDegree,christianity_protestant,christianity_protestant,Student,NA,1,#cde8e2,tired,feel tired,1,5045,2,2,USA
162,us_run_02b,us_run_02b_3,robot,us,22,male,yes_only,white,college_bachDegree,christianity_protestant,christianity_protestant,Student,NA,2,#a7dcf9,temperature,sense temperatures,0,4032,3,3,USA
163,us_run_02b,us_run_02b_3,robot,us,22,male,yes_only,white,college_bachDegree,christianity_protestant,christianity_protestant,Student,NA,3,#fde096,emo_recog,understand how somebody else is feeling,0,2592,0,0,USA
164,us_run_02b,us_run_02b_3,robot,us,22,male,yes_only,white,college_bachDegree,christianity_protestant,christianity_protestant,Student,NA,4,#d0d9ae,conscious,be aware of things,0,2081,5,5,USA
165,us_run_02b,us_run_02b_3,robot,us,22,male,yes_only,white,college_bachDegree,christianity_protestant,christianity_protestant,Student,NA,5,#c2e9f5,calm,feel calm,0,2283,1,1,USA
166,us_run_02b,us_run_02b_3,robot,us,22,male,yes_only,white,college_bachDegree,christianity_protestant,christianity_protestant,Student,NA,6,#9be4c0,desires,have desires -- like when you really want something,0,3519,0,0,USA
167,us_run_02b,us_run_02b_3,robot,us,22,male,yes_only,white,college_bachDegree,christianity_protestant,christianity_protestant,Student,NA,7,#ead1ec,self_aware,be aware of itself,0,2347,6,6,USA
168,us_run_02b,us_run_02b_3,robot,us,22,male,yes_only,white,college_bachDegree,christianity_protestant,christianity_protestant,Student,NA,8,#94ebda,free_will,decide what to do,0,2345,3,3,USA
169,us_run_02b,us_run_02b_3,robot,us,22,male,yes_only,white,college_bachDegree,christianity_protestant,christianity_protestant,Student,NA,9,#aceab4,beliefs,have beliefs -- like when you think something is true,0,3195,1,1,USA
170,us_run_02b,us_run_02b_3,robot,us,22,male,yes_only,white,college_bachDegree,christianity_protestant,christianity_protestant,Student,NA,10,#f3c5fa,personality,have a personality -- like when someone is shy and somebody else is silly,0,2429,2,2,USA
171,us_run_02b,us_run_02b_3,robot,us,22,male,yes_only,white,college_bachDegree,christianity_protestant,christianity_protestant,Student,NA,11,#8cf2c3,embarrassed,feel embarrassed,0,1794,0,0,USA
172,us_run_02b,us_run_02b_3,robot,us,22,male,yes_only,white,college_bachDegree,christianity_protestant,christianity_protestant,Student,NA,12,#a9e7e4,thoughts,have thoughts,0,2086,0,0,USA
173,us_run_02b,us_run_02b_3,robot,us,22,male,yes_only,white,college_bachDegree,christianity_protestant,christianity_protestant,Student,NA,13,#b5eaa1,nauseated,feel sick -- like when you feel like you might throw up,0,3978,0,0,USA
174,us_run_02b,us_run_02b_3,robot,us,22,male,yes_only,white,college_bachDegree,christianity_protestant,christianity_protestant,Student,NA,14,#dee7bc,sounds,hear sounds,0,4219,3,3,USA
175,us_run_02b,us_run_02b_3,robot,us,22,male,yes_only,white,college_bachDegree,christianity_protestant,christianity_protestant,Student,NA,15,#d2dcee,remembering,remember things,0,2383,5,5,USA
176,us_run_02b,us_run_02b_3,robot,us,22,male,yes_only,white,college_bachDegree,christianity_protestant,christianity_protestant,Student,NA,16,#fdcc93,safe,feel safe,0,3253,0,0,USA
177,us_run_02b,us_run_02b_3,robot,us,22,male,yes_only,white,college_bachDegree,christianity_protestant,christianity_protestant,Student,NA,17,#64f8f4,joy,feel joy,0,1800,0,0,USA
178,us_run_02b,us_run_02b_3,robot,us,22,male,yes_only,white,college_bachDegree,christianity_protestant,christianity_protestant,Student,NA,18,#d5d0fa,guilt,feel guilty,0,1199,0,0,USA
179,us_run_02b,us_run_02b_3,robot,us,22,male,yes_only,white,college_bachDegree,christianity_protestant,christianity_protestant,Student,NA,19,#d1e48e,happy,feel happy,0,2007,0,0,USA
180,us_run_02b,us_run_02b_3,robot,us,22,male,yes_only,white,college_bachDegree,christianity_protestant,christianity_protestant,Student,NA,20,#bce98d,computations,do math,0,1986,6,6,USA
181,us_run_02b,us_run_02b_3,robot,us,22,male,yes_only,white,college_bachDegree,christianity_protestant,christianity_protestant,Student,NA,21,#dedfa2,hungry,get hungry,0,3282,0,0,USA
182,us_run_02b,us_run_02b_3,robot,us,22,male,yes_only,white,college_bachDegree,christianity_protestant,christianity_protestant,Student,NA,22,#c3e5b5,depressed,feel sad,0,1934,0,0,USA
183,us_run_02b,us_run_02b_3,robot,us,22,male,yes_only,white,college_bachDegree,christianity_protestant,christianity_protestant,Student,NA,23,#3eeaef,disrespected,get hurt feelings,0,1849,0,0,USA
184,us_run_02b,us_run_02b_3,robot,us,22,male,yes_only,white,college_bachDegree,christianity_protestant,christianity_protestant,Student,NA,24,#e3dbc8,pleasure,feel pleasure -- like when something feels really good,0,4203,0,0,USA
185,us_run_02b,us_run_02b_3,robot,us,22,male,yes_only,white,college_bachDegree,christianity_protestant,christianity_protestant,Student,NA,25,#f0d9a2,angry,get angry,0,1010,0,0,USA
186,us_run_02b,us_run_02b_3,robot,us,22,male,yes_only,white,college_bachDegree,christianity_protestant,christianity_protestant,Student,NA,26,#f0d27e,morality,know what's nice and what's mean,0,3837,0,0,USA
187,us_run_02b,us_run_02b_3,robot,us,22,male,yes_only,white,college_bachDegree,christianity_protestant,christianity_protestant,Student,NA,27,#fddbd0,communicating,communicate with somebody else,0,2502,2,2,USA
188,us_run_02b,us_run_02b_3,robot,us,22,male,yes_only,white,college_bachDegree,christianity_protestant,christianity_protestant,Student,NA,28,#97eca5,self_restraint,have self-control -- like when you stop yourself from doing something you shouldn't do,0,4608,1,1,USA
189,us_run_02b,us_run_02b_3,robot,us,22,male,yes_only,white,college_bachDegree,christianity_protestant,christianity_protestant,Student,NA,29,#f3d0d9,love,feel love,0,1353,0,0,USA
190,us_run_02b,us_run_02b_3,robot,us,22,male,yes_only,white,college_bachDegree,christianity_protestant,christianity_protestant,Student,NA,30,#5ef2da,depth,sense whether something is close by or far away,0,2885,6,6,USA
191,us_run_02b,us_run_02b_3,robot,us,22,male,yes_only,white,college_bachDegree,christianity_protestant,christianity_protestant,Student,NA,31,#e3df8e,pride,feel proud,0,1553,0,0,USA
192,us_run_02b,us_run_02b_3,robot,us,22,male,yes_only,white,college_bachDegree,christianity_protestant,christianity_protestant,Student,NA,32,#b4dbe7,choices,make choices,0,2605,2,2,USA
193,us_run_02b,us_run_02b_3,robot,us,22,male,yes_only,white,college_bachDegree,christianity_protestant,christianity_protestant,Student,NA,33,#bae6c8,seeing,see things,0,2526,4,4,USA
194,us_run_02b,us_run_02b_3,robot,us,22,male,yes_only,white,college_bachDegree,christianity_protestant,christianity_protestant,Student,NA,34,#bfd6fa,fear,feel scared,0,3233,0,0,USA
195,us_run_02b,us_run_02b_3,robot,us,22,male,yes_only,white,college_bachDegree,christianity_protestant,christianity_protestant,Student,NA,35,#f2e1bc,reasoning,figure out how to do things,0,2660,2,2,USA
196,us_run_02b,us_run_02b_3,robot,us,22,male,yes_only,white,college_bachDegree,christianity_protestant,christianity_protestant,Student,NA,36,#cae5a1,intentions,make plans,0,2338,1,1,USA
197,us_run_02b,us_run_02b_3,robot,us,22,male,yes_only,white,college_bachDegree,christianity_protestant,christianity_protestant,Student,NA,37,#a9f2ce,pain,feel pain,0,1446,0,0,USA
198,us_run_02b,us_run_02b_3,robot,us,22,male,yes_only,white,college_bachDegree,christianity_protestant,christianity_protestant,Student,NA,38,#f2cdb9,odors,smell things,0,2905,1,1,USA
199,us_run_02b,us_run_02b_3,robot,us,22,male,yes_only,white,college_bachDegree,christianity_protestant,christianity_protestant,Student,NA,39,#84eced,goal,have goals -- like when you're working hard to do something or make something happen,0,4993,1,1,USA
200,us_run_02b,us_run_02b_3,robot,us,22,male,yes_only,white,college_bachDegree,christianity_protestant,christianity_protestant,Student,NA,40,#e3d3af,recognizing,recognize somebody else,0,2261,4,4,USA
201,us_run_02b,us_run_02b_4,robot,us,25,female,yes_multiple,asian_eastAsian,college_bachDegree,christianity_catholic,christianity_catholic,student,NA,1,#fde096,intentions,make plans,0,2621,4,4,usa
202,us_run_02b,us_run_02b_4,robot,us,25,female,yes_multiple,asian_eastAsian,college_bachDegree,christianity_catholic,christianity_catholic,student,NA,2,#c3e5b5,self_restraint,have self-control -- like when you stop yourself from doing something you shouldn't do,10946,7432,1,1,usa
203,us_run_02b,us_run_02b_4,robot,us,25,female,yes_multiple,asian_eastAsian,college_bachDegree,christianity_catholic,christianity_catholic,student,NA,3,#f2cdb9,disrespected,get hurt feelings,1,1619,1,1,usa
204,us_run_02b,us_run_02b_4,robot,us,25,female,yes_multiple,asian_eastAsian,college_bachDegree,christianity_catholic,christianity_catholic,student,NA,4,#94ebda,joy,feel joy,1023,2113,1,1,usa
205,us_run_02b,us_run_02b_4,robot,us,25,female,yes_multiple,asian_eastAsian,college_bachDegree,christianity_catholic,christianity_catholic,student,NA,5,#f3d0d9,thoughts,have thoughts,222,1414,1,1,usa
206,us_run_02b,us_run_02b_4,robot,us,25,female,yes_multiple,asian_eastAsian,college_bachDegree,christianity_catholic,christianity_catholic,student,NA,6,#ead1ec,safe,feel safe,234,1429,1,1,usa
207,us_run_02b,us_run_02b_4,robot,us,25,female,yes_multiple,asian_eastAsian,college_bachDegree,christianity_catholic,christianity_catholic,student,NA,7,#5ef2da,conscious,be aware of things,455,1355,5,5,usa
208,us_run_02b,us_run_02b_4,robot,us,25,female,yes_multiple,asian_eastAsian,college_bachDegree,christianity_catholic,christianity_catholic,student,NA,8,#9be4c0,reasoning,figure out how to do things,304,1194,6,6,usa
209,us_run_02b,us_run_02b_4,robot,us,25,female,yes_multiple,asian_eastAsian,college_bachDegree,christianity_catholic,christianity_catholic,student,NA,9,#fdcc93,desires,have desires -- like when you really want something,468,1675,0,0,usa
210,us_run_02b,us_run_02b_4,robot,us,25,female,yes_multiple,asian_eastAsian,college_bachDegree,christianity_catholic,christianity_catholic,student,NA,10,#bfd6fa,odors,smell things,236,1973,6,6,usa
211,us_run_02b,us_run_02b_4,robot,us,25,female,yes_multiple,asian_eastAsian,college_bachDegree,christianity_catholic,christianity_catholic,student,NA,11,#8cf2c3,pain,feel pain,0,1044,1,1,usa
212,us_run_02b,us_run_02b_4,robot,us,25,female,yes_multiple,asian_eastAsian,college_bachDegree,christianity_catholic,christianity_catholic,student,NA,12,#d1e48e,hungry,get hungry,0,1278,1,1,usa
213,us_run_02b,us_run_02b_4,robot,us,25,female,yes_multiple,asian_eastAsian,college_bachDegree,christianity_catholic,christianity_catholic,student,NA,13,#aceab4,nauseated,feel sick -- like when you feel like you might throw up,400,1481,0,0,usa
214,us_run_02b,us_run_02b_4,robot,us,25,female,yes_multiple,asian_eastAsian,college_bachDegree,christianity_catholic,christianity_catholic,student,NA,14,#3eeaef,angry,get angry,42,1505,0,0,usa
215,us_run_02b,us_run_02b_4,robot,us,25,female,yes_multiple,asian_eastAsian,college_bachDegree,christianity_catholic,christianity_catholic,student,NA,15,#bae6c8,love,feel love,255,1284,0,0,usa
216,us_run_02b,us_run_02b_4,robot,us,25,female,yes_multiple,asian_eastAsian,college_bachDegree,christianity_catholic,christianity_catholic,student,NA,16,#84eced,temperature,sense temperatures,437,1716,6,6,usa
217,us_run_02b,us_run_02b_4,robot,us,25,female,yes_multiple,asian_eastAsian,college_bachDegree,christianity_catholic,christianity_catholic,student,NA,17,#f0d27e,depressed,feel sad,0,1096,0,0,usa
218,us_run_02b,us_run_02b_4,robot,us,25,female,yes_multiple,asian_eastAsian,college_bachDegree,christianity_catholic,christianity_catholic,student,NA,18,#fddbd0,tired,feel tired,0,1322,0,0,usa
219,us_run_02b,us_run_02b_4,robot,us,25,female,yes_multiple,asian_eastAsian,college_bachDegree,christianity_catholic,christianity_catholic,student,NA,19,#e3dbc8,computations,do math,0,1535,6,6,usa
220,us_run_02b,us_run_02b_4,robot,us,25,female,yes_multiple,asian_eastAsian,college_bachDegree,christianity_catholic,christianity_catholic,student,NA,20,#b4dbe7,emo_recog,understand how somebody else is feeling,0,2860,0,0,usa
221,us_run_02b,us_run_02b_4,robot,us,25,female,yes_multiple,asian_eastAsian,college_bachDegree,christianity_catholic,christianity_catholic,student,NA,21,#d0e0c8,seeing,see things,0,948,6,6,usa
222,us_run_02b,us_run_02b_4,robot,us,25,female,yes_multiple,asian_eastAsian,college_bachDegree,christianity_catholic,christianity_catholic,student,NA,22,#bce98d,morality,know what's nice and what's mean,0,2226,0,0,usa
223,us_run_02b,us_run_02b_4,robot,us,25,female,yes_multiple,asian_eastAsian,college_bachDegree,christianity_catholic,christianity_catholic,student,NA,23,#cde8e2,guilt,feel guilty,0,1108,0,0,usa
224,us_run_02b,us_run_02b_4,robot,us,25,female,yes_multiple,asian_eastAsian,college_bachDegree,christianity_catholic,christianity_catholic,student,NA,24,#d0d9ae,pleasure,feel pleasure -- like when something feels really good,0,2348,0,0,usa
225,us_run_02b,us_run_02b_4,robot,us,25,female,yes_multiple,asian_eastAsian,college_bachDegree,christianity_catholic,christianity_catholic,student,NA,25,#cae5a1,happy,feel happy,0,1060,0,0,usa
226,us_run_02b,us_run_02b_4,robot,us,25,female,yes_multiple,asian_eastAsian,college_bachDegree,christianity_catholic,christianity_catholic,student,NA,26,#97eca5,communicating,communicate with somebody else,0,1011,0,0,usa
227,us_run_02b,us_run_02b_4,robot,us,25,female,yes_multiple,asian_eastAsian,college_bachDegree,christianity_catholic,christianity_catholic,student,NA,27,#d2dcee,goal,have goals -- like when you're working hard to do something or make something happen,0,3868,3,3,usa
228,us_run_02b,us_run_02b_4,robot,us,25,female,yes_multiple,asian_eastAsian,college_bachDegree,christianity_catholic,christianity_catholic,student,NA,28,#a9f2ce,beliefs,have beliefs -- like when you think something is true,269,1491,0,0,usa
229,us_run_02b,us_run_02b_4,robot,us,25,female,yes_multiple,asian_eastAsian,college_bachDegree,christianity_catholic,christianity_catholic,student,NA,29,#79e3f9,depth,sense whether something is close by or far away,459,1820,6,6,usa
230,us_run_02b,us_run_02b_4,robot,us,25,female,yes_multiple,asian_eastAsian,college_bachDegree,christianity_catholic,christianity_catholic,student,NA,30,#64f8f4,remembering,remember things,189,1107,6,6,usa
231,us_run_02b,us_run_02b_4,robot,us,25,female,yes_multiple,asian_eastAsian,college_bachDegree,christianity_catholic,christianity_catholic,student,NA,31,#f3c5fa,embarrassed,feel embarrassed,2,1099,0,0,usa
232,us_run_02b,us_run_02b_4,robot,us,25,female,yes_multiple,asian_eastAsian,college_bachDegree,christianity_catholic,christianity_catholic,student,NA,32,#dee7bc,calm,feel calm,212,1085,0,0,usa
233,us_run_02b,us_run_02b_4,robot,us,25,female,yes_multiple,asian_eastAsian,college_bachDegree,christianity_catholic,christianity_catholic,student,NA,33,#f2e1bc,free_will,decide what to do,291,1298,6,6,usa
234,us_run_02b,us_run_02b_4,robot,us,25,female,yes_multiple,asian_eastAsian,college_bachDegree,christianity_catholic,christianity_catholic,student,NA,34,#e3df8e,choices,make choices,493,1206,0,0,usa
235,us_run_02b,us_run_02b_4,robot,us,25,female,yes_multiple,asian_eastAsian,college_bachDegree,christianity_catholic,christianity_catholic,student,NA,35,#a9e7e4,personality,have a personality -- like when someone is shy and somebody else is silly,737,1665,0,0,usa
236,us_run_02b,us_run_02b_4,robot,us,25,female,yes_multiple,asian_eastAsian,college_bachDegree,christianity_catholic,christianity_catholic,student,NA,36,#dedfa2,sounds,hear sounds,3,1283,6,6,usa
237,us_run_02b,us_run_02b_4,robot,us,25,female,yes_multiple,asian_eastAsian,college_bachDegree,christianity_catholic,christianity_catholic,student,NA,37,#f0d9a2,pride,feel proud,279,1051,0,0,usa
238,us_run_02b,us_run_02b_4,robot,us,25,female,yes_multiple,asian_eastAsian,college_bachDegree,christianity_catholic,christianity_catholic,student,NA,38,#c2e9f5,fear,feel scared,297,1185,0,0,usa
239,us_run_02b,us_run_02b_4,robot,us,25,female,yes_multiple,asian_eastAsian,college_bachDegree,christianity_catholic,christianity_catholic,student,NA,39,#e3d3af,self_aware,be aware of itself,393,1221,6,6,usa
240,us_run_02b,us_run_02b_4,robot,us,25,female,yes_multiple,asian_eastAsian,college_bachDegree,christianity_catholic,christianity_catholic,student,NA,40,#a7dcf9,recognizing,recognize somebody else,316,1596,6,6,usa
241,us_run_02b,us_run_02b_5,robot,us,59,female,yes_only,white,grad_degree,christianity_catholic,none,retired,NA,1,#bce98d,emo_recog,understand how somebody else is feeling,1,13191,4,4,USA
242,us_run_02b,us_run_02b_5,robot,us,59,female,yes_only,white,grad_degree,christianity_catholic,none,retired,NA,2,#94ebda,love,feel love,0,7904,0,0,USA
243,us_run_02b,us_run_02b_5,robot,us,59,female,yes_only,white,grad_degree,christianity_catholic,none,retired,NA,3,#dee7bc,goal,have goals -- like when you're working hard to do something or make something happen,691,20517,3,3,USA
244,us_run_02b,us_run_02b_5,robot,us,59,female,yes_only,white,grad_degree,christianity_catholic,none,retired,NA,4,#e3dbc8,reasoning,figure out how to do things,745,13318,5,5,USA
245,us_run_02b,us_run_02b_5,robot,us,59,female,yes_only,white,grad_degree,christianity_catholic,none,retired,NA,5,#b5eaa1,hungry,get hungry,0,3438,0,0,USA
246,us_run_02b,us_run_02b_5,robot,us,59,female,yes_only,white,grad_degree,christianity_catholic,none,retired,NA,6,#fdcc93,conscious,be aware of things,0,8109,6,6,USA
247,us_run_02b,us_run_02b_5,robot,us,59,female,yes_only,white,grad_degree,christianity_catholic,none,retired,NA,7,#64f8f4,odors,smell things,0,7895,5,5,USA
248,us_run_02b,us_run_02b_5,robot,us,59,female,yes_only,white,grad_degree,christianity_catholic,none,retired,NA,8,#e3d3af,communicating,communicate with somebody else,0,14896,5,5,USA
249,us_run_02b,us_run_02b_5,robot,us,59,female,yes_only,white,grad_degree,christianity_catholic,none,retired,NA,9,#d0e0c8,angry,get angry,0,3157,0,0,USA
250,us_run_02b,us_run_02b_5,robot,us,59,female,yes_only,white,grad_degree,christianity_catholic,none,retired,NA,10,#3eeaef,morality,know what's nice and what's mean,0,9513,4,4,USA
251,us_run_02b,us_run_02b_5,robot,us,59,female,yes_only,white,grad_degree,christianity_catholic,none,retired,NA,11,#aceab4,intentions,make plans,0,8432,5,5,USA
252,us_run_02b,us_run_02b_5,robot,us,59,female,yes_only,white,grad_degree,christianity_catholic,none,retired,NA,12,#f0d27e,seeing,see things,0,4186,5,5,USA
253,us_run_02b,us_run_02b_5,robot,us,59,female,yes_only,white,grad_degree,christianity_catholic,none,retired,NA,13,#fddbd0,joy,feel joy,0,3122,0,0,USA
254,us_run_02b,us_run_02b_5,robot,us,59,female,yes_only,white,grad_degree,christianity_catholic,none,retired,NA,14,#a7dcf9,pleasure,feel pleasure -- like when something feels really good,0,5163,0,0,USA
255,us_run_02b,us_run_02b_5,robot,us,59,female,yes_only,white,grad_degree,christianity_catholic,none,retired,NA,15,#cde8e2,safe,feel safe,0,8118,1,1,USA
256,us_run_02b,us_run_02b_5,robot,us,59,female,yes_only,white,grad_degree,christianity_catholic,none,retired,NA,16,#fde096,pain,feel pain,0,2933,0,0,USA
257,us_run_02b,us_run_02b_5,robot,us,59,female,yes_only,white,grad_degree,christianity_catholic,none,retired,NA,17,#bae6c8,calm,feel calm,0,2512,0,0,USA
258,us_run_02b,us_run_02b_5,robot,us,59,female,yes_only,white,grad_degree,christianity_catholic,none,retired,NA,18,#97eca5,self_restraint,have self-control -- like when you stop yourself from doing something you shouldn't do,0,14184,0,0,USA
259,us_run_02b,us_run_02b_5,robot,us,59,female,yes_only,white,grad_degree,christianity_catholic,none,retired,NA,19,#79e3f9,temperature,sense temperatures,0,3651,6,6,USA
260,us_run_02b,us_run_02b_5,robot,us,59,female,yes_only,white,grad_degree,christianity_catholic,none,retired,NA,20,#c3e5b5,recognizing,recognize somebody else,0,7555,6,6,USA
261,us_run_02b,us_run_02b_5,robot,us,59,female,yes_only,white,grad_degree,christianity_catholic,none,retired,NA,21,#dedfa2,free_will,decide what to do,0,8294,5,5,USA
262,us_run_02b,us_run_02b_5,robot,us,59,female,yes_only,white,grad_degree,christianity_catholic,none,retired,NA,22,#f2e1bc,happy,feel happy,0,3635,0,0,USA
263,us_run_02b,us_run_02b_5,robot,us,59,female,yes_only,white,grad_degree,christianity_catholic,none,retired,NA,23,#d2dcee,fear,feel scared,0,1757,0,0,USA
264,us_run_02b,us_run_02b_5,robot,us,59,female,yes_only,white,grad_degree,christianity_catholic,none,retired,NA,24,#cae5a1,depressed,feel sad,0,3599,0,0,USA
265,us_run_02b,us_run_02b_5,robot,us,59,female,yes_only,white,grad_degree,christianity_catholic,none,retired,NA,25,#a9f2ce,beliefs,have beliefs -- like when you think something is true,0,7796,6,6,USA
266,us_run_02b,us_run_02b_5,robot,us,59,female,yes_only,white,grad_degree,christianity_catholic,none,retired,NA,26,#bfd6fa,guilt,feel guilty,0,3238,0,0,USA
267,us_run_02b,us_run_02b_5,robot,us,59,female,yes_only,white,grad_degree,christianity_catholic,none,retired,NA,27,#f3c5fa,depth,sense whether something is close by or far away,0,3954,6,6,USA
268,us_run_02b,us_run_02b_5,robot,us,59,female,yes_only,white,grad_degree,christianity_catholic,none,retired,NA,28,#b4dbe7,thoughts,have thoughts,0,9824,0,0,USA
269,us_run_02b,us_run_02b_5,robot,us,59,female,yes_only,white,grad_degree,christianity_catholic,none,retired,NA,29,#f3d0d9,computations,do math,0,3526,6,6,USA
270,us_run_02b,us_run_02b_5,robot,us,59,female,yes_only,white,grad_degree,christianity_catholic,none,retired,NA,30,#5ef2da,disrespected,get hurt feelings,0,4134,0,0,USA
271,us_run_02b,us_run_02b_5,robot,us,59,female,yes_only,white,grad_degree,christianity_catholic,none,retired,NA,31,#d5d0fa,personality,have a personality -- like when someone is shy and somebody else is silly,0,10203,5,5,USA
272,us_run_02b,us_run_02b_5,robot,us,59,female,yes_only,white,grad_degree,christianity_catholic,none,retired,NA,32,#ead1ec,self_aware,be aware of itself,0,4809,5,5,USA
273,us_run_02b,us_run_02b_5,robot,us,59,female,yes_only,white,grad_degree,christianity_catholic,none,retired,NA,33,#9be4c0,tired,feel tired,0,4221,0,0,USA
274,us_run_02b,us_run_02b_5,robot,us,59,female,yes_only,white,grad_degree,christianity_catholic,none,retired,NA,34,#84eced,pride,feel proud,0,1974,0,0,USA
275,us_run_02b,us_run_02b_5,robot,us,59,female,yes_only,white,grad_degree,christianity_catholic,none,retired,NA,35,#d0d9ae,embarrassed,feel embarrassed,0,3557,0,0,USA
276,us_run_02b,us_run_02b_5,robot,us,59,female,yes_only,white,grad_degree,christianity_catholic,none,retired,NA,36,#f0d9a2,sounds,hear sounds,0,4522,5,5,USA
277,us_run_02b,us_run_02b_5,robot,us,59,female,yes_only,white,grad_degree,christianity_catholic,none,retired,NA,37,#f2cdb9,nauseated,feel sick -- like when you feel like you might throw up,0,10353,0,0,USA
278,us_run_02b,us_run_02b_5,robot,us,59,female,yes_only,white,grad_degree,christianity_catholic,none,retired,NA,38,#8cf2c3,desires,have desires -- like when you really want something,0,5397,0,0,USA
279,us_run_02b,us_run_02b_5,robot,us,59,female,yes_only,white,grad_degree,christianity_catholic,none,retired,NA,39,#d1e48e,choices,make choices,0,3172,6,6,USA
280,us_run_02b,us_run_02b_5,robot,us,59,female,yes_only,white,grad_degree,christianity_catholic,none,retired,NA,40,#a9e7e4,remembering,remember things,0,2198,6,6,USA
281,us_run_02b,us_run_02b_6,robot,us,37,female,yes_only,white,grad_degree,christianity_catholic,christianity_catholic,ASSET MANAGER,NA,1,#f3d0d9,tired,feel tired,1806,3178,0,0,USA
282,us_run_02b,us_run_02b_6,robot,us,37,female,yes_only,white,grad_degree,christianity_catholic,christianity_catholic,ASSET MANAGER,NA,2,#f2e1bc,depth,sense whether something is close by or far away,0,4959,3,3,USA
283,us_run_02b,us_run_02b_6,robot,us,37,female,yes_only,white,grad_degree,christianity_catholic,christianity_catholic,ASSET MANAGER,NA,3,#d2dcee,pleasure,feel pleasure -- like when something feels really good,0,1931,0,0,USA
284,us_run_02b,us_run_02b_6,robot,us,37,female,yes_only,white,grad_degree,christianity_catholic,christianity_catholic,ASSET MANAGER,NA,4,#a9f2ce,temperature,sense temperatures,0,1947,3,3,USA
285,us_run_02b,us_run_02b_6,robot,us,37,female,yes_only,white,grad_degree,christianity_catholic,christianity_catholic,ASSET MANAGER,NA,5,#e3df8e,emo_recog,understand how somebody else is feeling,0,1731,0,0,USA
286,us_run_02b,us_run_02b_6,robot,us,37,female,yes_only,white,grad_degree,christianity_catholic,christianity_catholic,ASSET MANAGER,NA,6,#a9e7e4,joy,feel joy,0,1139,0,0,USA
287,us_run_02b,us_run_02b_6,robot,us,37,female,yes_only,white,grad_degree,christianity_catholic,christianity_catholic,ASSET MANAGER,NA,7,#fdcc93,goal,have goals -- like when you're working hard to do something or make something happen,0,1963,0,0,USA
288,us_run_02b,us_run_02b_6,robot,us,37,female,yes_only,white,grad_degree,christianity_catholic,christianity_catholic,ASSET MANAGER,NA,8,#ead1ec,communicating,communicate with somebody else,0,2287,3,3,USA
289,us_run_02b,us_run_02b_6,robot,us,37,female,yes_only,white,grad_degree,christianity_catholic,christianity_catholic,ASSET MANAGER,NA,9,#84eced,happy,feel happy,0,1415,0,0,USA
290,us_run_02b,us_run_02b_6,robot,us,37,female,yes_only,white,grad_degree,christianity_catholic,christianity_catholic,ASSET MANAGER,NA,10,#d5d0fa,free_will,decide what to do,0,2907,0,0,USA
291,us_run_02b,us_run_02b_6,robot,us,37,female,yes_only,white,grad_degree,christianity_catholic,christianity_catholic,ASSET MANAGER,NA,11,#aceab4,intentions,make plans,0,1035,0,0,USA
292,us_run_02b,us_run_02b_6,robot,us,37,female,yes_only,white,grad_degree,christianity_catholic,christianity_catholic,ASSET MANAGER,NA,12,#d0d9ae,thoughts,have thoughts,0,919,0,0,USA
293,us_run_02b,us_run_02b_6,robot,us,37,female,yes_only,white,grad_degree,christianity_catholic,christianity_catholic,ASSET MANAGER,NA,13,#a7dcf9,reasoning,figure out how to do things,0,3379,0,0,USA
294,us_run_02b,us_run_02b_6,robot,us,37,female,yes_only,white,grad_degree,christianity_catholic,christianity_catholic,ASSET MANAGER,NA,14,#e3d3af,calm,feel calm,0,922,0,0,USA
295,us_run_02b,us_run_02b_6,robot,us,37,female,yes_only,white,grad_degree,christianity_catholic,christianity_catholic,ASSET MANAGER,NA,15,#64f8f4,choices,make choices,0,3123,0,0,USA
296,us_run_02b,us_run_02b_6,robot,us,37,female,yes_only,white,grad_degree,christianity_catholic,christianity_catholic,ASSET MANAGER,NA,16,#bfd6fa,conscious,be aware of things,0,1151,0,0,USA
297,us_run_02b,us_run_02b_6,robot,us,37,female,yes_only,white,grad_degree,christianity_catholic,christianity_catholic,ASSET MANAGER,NA,17,#f0d27e,desires,have desires -- like when you really want something,0,1235,0,0,USA
298,us_run_02b,us_run_02b_6,robot,us,37,female,yes_only,white,grad_degree,christianity_catholic,christianity_catholic,ASSET MANAGER,NA,18,#e3dbc8,pride,feel proud,0,1051,0,0,USA
299,us_run_02b,us_run_02b_6,robot,us,37,female,yes_only,white,grad_degree,christianity_catholic,christianity_catholic,ASSET MANAGER,NA,19,#fddbd0,sounds,hear sounds,0,2019,3,3,USA
300,us_run_02b,us_run_02b_6,robot,us,37,female,yes_only,white,grad_degree,christianity_catholic,christianity_catholic,ASSET MANAGER,NA,20,#8cf2c3,angry,get angry,0,1143,0,0,USA
301,us_run_02b,us_run_02b_6,robot,us,37,female,yes_only,white,grad_degree,christianity_catholic,christianity_catholic,ASSET MANAGER,NA,21,#f2cdb9,guilt,feel guilty,0,1143,0,0,USA
302,us_run_02b,us_run_02b_6,robot,us,37,female,yes_only,white,grad_degree,christianity_catholic,christianity_catholic,ASSET MANAGER,NA,22,#f0d9a2,nauseated,feel sick -- like when you feel like you might throw up,0,2131,0,0,USA
303,us_run_02b,us_run_02b_6,robot,us,37,female,yes_only,white,grad_degree,christianity_catholic,christianity_catholic,ASSET MANAGER,NA,23,#5ef2da,personality,have a personality -- like when someone is shy and somebody else is silly,0,1635,0,0,USA
304,us_run_02b,us_run_02b_6,robot,us,37,female,yes_only,white,grad_degree,christianity_catholic,christianity_catholic,ASSET MANAGER,NA,24,#cae5a1,pain,feel pain,0,839,0,0,USA
305,us_run_02b,us_run_02b_6,robot,us,37,female,yes_only,white,grad_degree,christianity_catholic,christianity_catholic,ASSET MANAGER,NA,25,#d1e48e,odors,smell things,0,775,0,0,USA
306,us_run_02b,us_run_02b_6,robot,us,37,female,yes_only,white,grad_degree,christianity_catholic,christianity_catholic,ASSET MANAGER,NA,26,#c3e5b5,disrespected,get hurt feelings,0,887,0,0,USA
307,us_run_02b,us_run_02b_6,robot,us,37,female,yes_only,white,grad_degree,christianity_catholic,christianity_catholic,ASSET MANAGER,NA,27,#cde8e2,depressed,feel sad,0,775,0,0,USA
308,us_run_02b,us_run_02b_6,robot,us,37,female,yes_only,white,grad_degree,christianity_catholic,christianity_catholic,ASSET MANAGER,NA,28,#d0e0c8,embarrassed,feel embarrassed,0,707,0,0,USA
309,us_run_02b,us_run_02b_6,robot,us,37,female,yes_only,white,grad_degree,christianity_catholic,christianity_catholic,ASSET MANAGER,NA,29,#9be4c0,remembering,remember things,0,908,0,0,USA
310,us_run_02b,us_run_02b_6,robot,us,37,female,yes_only,white,grad_degree,christianity_catholic,christianity_catholic,ASSET MANAGER,NA,30,#79e3f9,recognizing,recognize somebody else,0,1891,3,3,USA
311,us_run_02b,us_run_02b_6,robot,us,37,female,yes_only,white,grad_degree,christianity_catholic,christianity_catholic,ASSET MANAGER,NA,31,#bce98d,computations,do math,0,2639,6,6,USA
312,us_run_02b,us_run_02b_6,robot,us,37,female,yes_only,white,grad_degree,christianity_catholic,christianity_catholic,ASSET MANAGER,NA,32,#b5eaa1,self_aware,be aware of itself,0,2032,0,0,USA
313,us_run_02b,us_run_02b_6,robot,us,37,female,yes_only,white,grad_degree,christianity_catholic,christianity_catholic,ASSET MANAGER,NA,33,#dee7bc,love,feel love,0,836,0,0,USA
314,us_run_02b,us_run_02b_6,robot,us,37,female,yes_only,white,grad_degree,christianity_catholic,christianity_catholic,ASSET MANAGER,NA,34,#94ebda,morality,know what's nice and what's mean,0,1935,0,0,USA
315,us_run_02b,us_run_02b_6,robot,us,37,female,yes_only,white,grad_degree,christianity_catholic,christianity_catholic,ASSET MANAGER,NA,35,#c2e9f5,self_restraint,have self-control -- like when you stop yourself from doing something you shouldn't do,0,2943,0,0,USA
316,us_run_02b,us_run_02b_6,robot,us,37,female,yes_only,white,grad_degree,christianity_catholic,christianity_catholic,ASSET MANAGER,NA,36,#bae6c8,safe,feel safe,0,859,0,0,USA
317,us_run_02b,us_run_02b_6,robot,us,37,female,yes_only,white,grad_degree,christianity_catholic,christianity_catholic,ASSET MANAGER,NA,37,#fde096,seeing,see things,0,2056,6,6,USA
318,us_run_02b,us_run_02b_6,robot,us,37,female,yes_only,white,grad_degree,christianity_catholic,christianity_catholic,ASSET MANAGER,NA,38,#3eeaef,fear,feel scared,0,1168,0,0,USA
319,us_run_02b,us_run_02b_6,robot,us,37,female,yes_only,white,grad_degree,christianity_catholic,christianity_catholic,ASSET MANAGER,NA,39,#b4dbe7,hungry,get hungry,0,1296,0,0,USA
320,us_run_02b,us_run_02b_6,robot,us,37,female,yes_only,white,grad_degree,christianity_catholic,christianity_catholic,ASSET MANAGER,NA,40,#f3c5fa,beliefs,have beliefs -- like when you think something is true,0,1332,0,0,USA
321,us_run_02b,us_run_02b_7,robot,us,31,male,yes_only,white,college_bachDegree,none,none,Student Full Time,"Thank you for a fun survey
",1,#b4dbe7,joy,feel joy,1,7353,1,1,United States
322,us_run_02b,us_run_02b_7,robot,us,31,male,yes_only,white,college_bachDegree,none,none,Student Full Time,"Thank you for a fun survey
",2,#d5d0fa,sounds,hear sounds,0,2966,6,6,United States
323,us_run_02b,us_run_02b_7,robot,us,31,male,yes_only,white,college_bachDegree,none,none,Student Full Time,"Thank you for a fun survey
",3,#bce98d,temperature,sense temperatures,0,2514,6,6,United States
324,us_run_02b,us_run_02b_7,robot,us,31,male,yes_only,white,college_bachDegree,none,none,Student Full Time,"Thank you for a fun survey
",4,#a9f2ce,hungry,get hungry,0,1888,0,0,United States
325,us_run_02b,us_run_02b_7,robot,us,31,male,yes_only,white,college_bachDegree,none,none,Student Full Time,"Thank you for a fun survey
",5,#84eced,pain,feel pain,0,1616,0,0,United States
326,us_run_02b,us_run_02b_7,robot,us,31,male,yes_only,white,college_bachDegree,none,none,Student Full Time,"Thank you for a fun survey
",6,#f3c5fa,depressed,feel sad,0,1468,0,0,United States
327,us_run_02b,us_run_02b_7,robot,us,31,male,yes_only,white,college_bachDegree,none,none,Student Full Time,"Thank you for a fun survey
",7,#97eca5,love,feel love,0,1415,0,0,United States
328,us_run_02b,us_run_02b_7,robot,us,31,male,yes_only,white,college_bachDegree,none,none,Student Full Time,"Thank you for a fun survey
",8,#d0e0c8,guilt,feel guilty,0,3850,0,0,United States
329,us_run_02b,us_run_02b_7,robot,us,31,male,yes_only,white,college_bachDegree,none,none,Student Full Time,"Thank you for a fun survey
",9,#d0d9ae,safe,feel safe,0,1318,0,0,United States
330,us_run_02b,us_run_02b_7,robot,us,31,male,yes_only,white,college_bachDegree,none,none,Student Full Time,"Thank you for a fun survey
",10,#fde096,calm,feel calm,0,1216,0,0,United States
331,us_run_02b,us_run_02b_7,robot,us,31,male,yes_only,white,college_bachDegree,none,none,Student Full Time,"Thank you for a fun survey
",11,#f2cdb9,odors,smell things,0,1834,0,0,United States
332,us_run_02b,us_run_02b_7,robot,us,31,male,yes_only,white,college_bachDegree,none,none,Student Full Time,"Thank you for a fun survey
",12,#dee7bc,conscious,be aware of things,0,1465,6,6,United States
333,us_run_02b,us_run_02b_7,robot,us,31,male,yes_only,white,college_bachDegree,none,none,Student Full Time,"Thank you for a fun survey
",13,#b5eaa1,emo_recog,understand how somebody else is feeling,0,2316,5,5,United States
334,us_run_02b,us_run_02b_7,robot,us,31,male,yes_only,white,college_bachDegree,none,none,Student Full Time,"Thank you for a fun survey
",14,#f0d9a2,free_will,decide what to do,0,1870,6,6,United States
335,us_run_02b,us_run_02b_7,robot,us,31,male,yes_only,white,college_bachDegree,none,none,Student Full Time,"Thank you for a fun survey
",15,#3eeaef,depth,sense whether something is close by or far away,0,2066,6,6,United States
336,us_run_02b,us_run_02b_7,robot,us,31,male,yes_only,white,college_bachDegree,none,none,Student Full Time,"Thank you for a fun survey
",16,#e3df8e,seeing,see things,0,1166,6,6,United States
337,us_run_02b,us_run_02b_7,robot,us,31,male,yes_only,white,college_bachDegree,none,none,Student Full Time,"Thank you for a fun survey
",17,#c3e5b5,intentions,make plans,0,2332,3,3,United States
338,us_run_02b,us_run_02b_7,robot,us,31,male,yes_only,white,college_bachDegree,none,none,Student Full Time,"Thank you for a fun survey
",18,#cae5a1,personality,have a personality -- like when someone is shy and somebody else is silly,0,4586,2,2,United States
339,us_run_02b,us_run_02b_7,robot,us,31,male,yes_only,white,college_bachDegree,none,none,Student Full Time,"Thank you for a fun survey
",19,#a7dcf9,happy,feel happy,0,2898,0,0,United States
340,us_run_02b,us_run_02b_7,robot,us,31,male,yes_only,white,college_bachDegree,none,none,Student Full Time,"Thank you for a fun survey
",20,#fdcc93,pleasure,feel pleasure -- like when something feels really good,0,1852,0,0,United States
341,us_run_02b,us_run_02b_7,robot,us,31,male,yes_only,white,college_bachDegree,none,none,Student Full Time,"Thank you for a fun survey
",21,#e3d3af,choices,make choices,0,1881,5,5,United States
342,us_run_02b,us_run_02b_7,robot,us,31,male,yes_only,white,college_bachDegree,none,none,Student Full Time,"Thank you for a fun survey
",22,#5ef2da,self_aware,be aware of itself,0,1532,5,5,United States
343,us_run_02b,us_run_02b_7,robot,us,31,male,yes_only,white,college_bachDegree,none,none,Student Full Time,"Thank you for a fun survey
",23,#e3dbc8,recognizing,recognize somebody else,0,1554,5,5,United States
344,us_run_02b,us_run_02b_7,robot,us,31,male,yes_only,white,college_bachDegree,none,none,Student Full Time,"Thank you for a fun survey
",24,#79e3f9,desires,have desires -- like when you really want something,0,2482,0,0,United States
345,us_run_02b,us_run_02b_7,robot,us,31,male,yes_only,white,college_bachDegree,none,none,Student Full Time,"Thank you for a fun survey
",25,#ead1ec,tired,feel tired,0,1850,0,0,United States
346,us_run_02b,us_run_02b_7,robot,us,31,male,yes_only,white,college_bachDegree,none,none,Student Full Time,"Thank you for a fun survey
",26,#f2e1bc,reasoning,figure out how to do things,0,2418,6,6,United States
347,us_run_02b,us_run_02b_7,robot,us,31,male,yes_only,white,college_bachDegree,none,none,Student Full Time,"Thank you for a fun survey
",27,#bae6c8,computations,do math,0,1249,6,6,United States
348,us_run_02b,us_run_02b_7,robot,us,31,male,yes_only,white,college_bachDegree,none,none,Student Full Time,"Thank you for a fun survey
",28,#f0d27e,nauseated,feel sick -- like when you feel like you might throw up,0,3018,0,0,United States
349,us_run_02b,us_run_02b_7,robot,us,31,male,yes_only,white,college_bachDegree,none,none,Student Full Time,"Thank you for a fun survey
",29,#8cf2c3,disrespected,get hurt feelings,0,1878,0,0,United States
350,us_run_02b,us_run_02b_7,robot,us,31,male,yes_only,white,college_bachDegree,none,none,Student Full Time,"Thank you for a fun survey
",30,#64f8f4,beliefs,have beliefs -- like when you think something is true,0,1337,0,0,United States
351,us_run_02b,us_run_02b_7,robot,us,31,male,yes_only,white,college_bachDegree,none,none,Student Full Time,"Thank you for a fun survey
",31,#c2e9f5,remembering,remember things,0,1883,6,6,United States
352,us_run_02b,us_run_02b_7,robot,us,31,male,yes_only,white,college_bachDegree,none,none,Student Full Time,"Thank you for a fun survey
",32,#d1e48e,thoughts,have thoughts,0,1883,4,4,United States
353,us_run_02b,us_run_02b_7,robot,us,31,male,yes_only,white,college_bachDegree,none,none,Student Full Time,"Thank you for a fun survey
",33,#aceab4,communicating,communicate with somebody else,0,2969,6,6,United States
354,us_run_02b,us_run_02b_7,robot,us,31,male,yes_only,white,college_bachDegree,none,none,Student Full Time,"Thank you for a fun survey
",34,#cde8e2,self_restraint,have self-control -- like when you stop yourself from doing something you shouldn't do,0,2882,0,0,United States
355,us_run_02b,us_run_02b_7,robot,us,31,male,yes_only,white,college_bachDegree,none,none,Student Full Time,"Thank you for a fun survey
",35,#bfd6fa,angry,get angry,0,1432,0,0,United States
356,us_run_02b,us_run_02b_7,robot,us,31,male,yes_only,white,college_bachDegree,none,none,Student Full Time,"Thank you for a fun survey
",36,#94ebda,fear,feel scared,0,1219,0,0,United States
357,us_run_02b,us_run_02b_7,robot,us,31,male,yes_only,white,college_bachDegree,none,none,Student Full Time,"Thank you for a fun survey
",37,#f3d0d9,morality,know what's nice and what's mean,0,3865,4,4,United States
358,us_run_02b,us_run_02b_7,robot,us,31,male,yes_only,white,college_bachDegree,none,none,Student Full Time,"Thank you for a fun survey
",38,#dedfa2,goal,have goals -- like when you're working hard to do something or make something happen,0,3481,0,0,United States
359,us_run_02b,us_run_02b_7,robot,us,31,male,yes_only,white,college_bachDegree,none,none,Student Full Time,"Thank you for a fun survey
",39,#fddbd0,embarrassed,feel embarrassed,0,1087,0,0,United States
360,us_run_02b,us_run_02b_7,robot,us,31,male,yes_only,white,college_bachDegree,none,none,Student Full Time,"Thank you for a fun survey
",40,#a9e7e4,pride,feel proud,0,868,0,0,United States
361,us_run_02b,us_run_02b_8,robot,us,50,female,yes_only,white,college_some,none,none,desk clerk,NA,1,#f0d9a2,computations,do math,2827,2787,6,6,usa
362,us_run_02b,us_run_02b_8,robot,us,50,female,yes_only,white,college_some,none,none,desk clerk,NA,2,#94ebda,love,feel love,0,1900,0,0,usa
363,us_run_02b,us_run_02b_8,robot,us,50,female,yes_only,white,college_some,none,none,desk clerk,NA,3,#d0e0c8,free_will,decide what to do,0,1501,6,6,usa
364,us_run_02b,us_run_02b_8,robot,us,50,female,yes_only,white,college_some,none,none,desk clerk,NA,4,#cde8e2,morality,know what's nice and what's mean,0,3966,1,1,usa
365,us_run_02b,us_run_02b_8,robot,us,50,female,yes_only,white,college_some,none,none,desk clerk,NA,5,#e3d3af,embarrassed,feel embarrassed,0,1206,1,1,usa
366,us_run_02b,us_run_02b_8,robot,us,50,female,yes_only,white,college_some,none,none,desk clerk,NA,6,#f3c5fa,odors,smell things,0,1071,1,1,usa
367,us_run_02b,us_run_02b_8,robot,us,50,female,yes_only,white,college_some,none,none,desk clerk,NA,7,#97eca5,personality,have a personality -- like when someone is shy and somebody else is silly,0,1717,1,1,usa
368,us_run_02b,us_run_02b_8,robot,us,50,female,yes_only,white,college_some,none,none,desk clerk,NA,8,#5ef2da,sounds,hear sounds,0,1885,6,6,usa
369,us_run_02b,us_run_02b_8,robot,us,50,female,yes_only,white,college_some,none,none,desk clerk,NA,9,#a7dcf9,happy,feel happy,0,1933,1,1,usa
370,us_run_02b,us_run_02b_8,robot,us,50,female,yes_only,white,college_some,none,none,desk clerk,NA,10,#c3e5b5,recognizing,recognize somebody else,0,1605,6,6,usa
371,us_run_02b,us_run_02b_8,robot,us,50,female,yes_only,white,college_some,none,none,desk clerk,NA,11,#84eced,depressed,feel sad,0,1854,1,1,usa
372,us_run_02b,us_run_02b_8,robot,us,50,female,yes_only,white,college_some,none,none,desk clerk,NA,12,#b5eaa1,nauseated,feel sick -- like when you feel like you might throw up,0,2510,0,0,usa
373,us_run_02b,us_run_02b_8,robot,us,50,female,yes_only,white,college_some,none,none,desk clerk,NA,13,#bfd6fa,hungry,get hungry,0,1070,0,0,usa
374,us_run_02b,us_run_02b_8,robot,us,50,female,yes_only,white,college_some,none,none,desk clerk,NA,14,#aceab4,calm,feel calm,0,2003,0,0,usa
375,us_run_02b,us_run_02b_8,robot,us,50,female,yes_only,white,college_some,none,none,desk clerk,NA,15,#f2cdb9,disrespected,get hurt feelings,0,1004,0,0,usa
376,us_run_02b,us_run_02b_8,robot,us,50,female,yes_only,white,college_some,none,none,desk clerk,NA,16,#ead1ec,reasoning,figure out how to do things,0,2007,6,6,usa
377,us_run_02b,us_run_02b_8,robot,us,50,female,yes_only,white,college_some,none,none,desk clerk,NA,17,#dedfa2,depth,sense whether something is close by or far away,0,2029,6,6,usa
378,us_run_02b,us_run_02b_8,robot,us,50,female,yes_only,white,college_some,none,none,desk clerk,NA,18,#bae6c8,pleasure,feel pleasure -- like when something feels really good,0,2406,0,0,usa
379,us_run_02b,us_run_02b_8,robot,us,50,female,yes_only,white,college_some,none,none,desk clerk,NA,19,#f0d27e,tired,feel tired,0,1581,0,0,usa
380,us_run_02b,us_run_02b_8,robot,us,50,female,yes_only,white,college_some,none,none,desk clerk,NA,20,#b4dbe7,thoughts,have thoughts,0,3525,6,6,usa
381,us_run_02b,us_run_02b_8,robot,us,50,female,yes_only,white,college_some,none,none,desk clerk,NA,21,#3eeaef,guilt,feel guilty,0,1590,0,0,usa
382,us_run_02b,us_run_02b_8,robot,us,50,female,yes_only,white,college_some,none,none,desk clerk,NA,22,#bce98d,choices,make choices,0,1455,6,6,usa
383,us_run_02b,us_run_02b_8,robot,us,50,female,yes_only,white,college_some,none,none,desk clerk,NA,23,#d2dcee,joy,feel joy,0,1372,0,0,usa
384,us_run_02b,us_run_02b_8,robot,us,50,female,yes_only,white,college_some,none,none,desk clerk,NA,24,#a9f2ce,self_aware,be aware of itself,0,2543,0,0,usa
385,us_run_02b,us_run_02b_8,robot,us,50,female,yes_only,white,college_some,none,none,desk clerk,NA,25,#8cf2c3,desires,have desires -- like when you really want something,0,1552,0,0,usa
386,us_run_02b,us_run_02b_8,robot,us,50,female,yes_only,white,college_some,none,none,desk clerk,NA,26,#f3d0d9,communicating,communicate with somebody else,0,2419,6,6,usa
387,us_run_02b,us_run_02b_8,robot,us,50,female,yes_only,white,college_some,none,none,desk clerk,NA,27,#d5d0fa,conscious,be aware of things,0,1621,6,6,usa
388,us_run_02b,us_run_02b_8,robot,us,50,female,yes_only,white,college_some,none,none,desk clerk,NA,28,#cae5a1,goal,have goals -- like when you're working hard to do something or make something happen,0,4151,1,1,usa
389,us_run_02b,us_run_02b_8,robot,us,50,female,yes_only,white,college_some,none,none,desk clerk,NA,29,#79e3f9,beliefs,have beliefs -- like when you think something is true,0,1624,1,1,usa
390,us_run_02b,us_run_02b_8,robot,us,50,female,yes_only,white,college_some,none,none,desk clerk,NA,30,#9be4c0,emo_recog,understand how somebody else is feeling,0,2260,0,0,usa
391,us_run_02b,us_run_02b_8,robot,us,50,female,yes_only,white,college_some,none,none,desk clerk,NA,31,#e3df8e,angry,get angry,0,1167,0,0,usa
392,us_run_02b,us_run_02b_8,robot,us,50,female,yes_only,white,college_some,none,none,desk clerk,NA,32,#d0d9ae,seeing,see things,0,1629,6,6,usa
393,us_run_02b,us_run_02b_8,robot,us,50,female,yes_only,white,college_some,none,none,desk clerk,NA,33,#64f8f4,remembering,remember things,0,1157,6,6,usa
394,us_run_02b,us_run_02b_8,robot,us,50,female,yes_only,white,college_some,none,none,desk clerk,NA,34,#c2e9f5,intentions,make plans,0,1273,6,6,usa
395,us_run_02b,us_run_02b_8,robot,us,50,female,yes_only,white,college_some,none,none,desk clerk,NA,35,#d1e48e,temperature,sense temperatures,0,1171,6,6,usa
396,us_run_02b,us_run_02b_8,robot,us,50,female,yes_only,white,college_some,none,none,desk clerk,NA,36,#fdcc93,self_restraint,have self-control -- like when you stop yourself from doing something you shouldn't do,0,2565,0,0,usa
397,us_run_02b,us_run_02b_8,robot,us,50,female,yes_only,white,college_some,none,none,desk clerk,NA,37,#a9e7e4,pride,feel proud,0,1686,0,0,usa
398,us_run_02b,us_run_02b_8,robot,us,50,female,yes_only,white,college_some,none,none,desk clerk,NA,38,#dee7bc,safe,feel safe,0,1415,0,0,usa
399,us_run_02b,us_run_02b_8,robot,us,50,female,yes_only,white,college_some,none,none,desk clerk,NA,39,#f2e1bc,fear,feel scared,0,736,0,0,usa
400,us_run_02b,us_run_02b_8,robot,us,50,female,yes_only,white,college_some,none,none,desk clerk,NA,40,#fddbd0,pain,feel pain,0,794,0,0,usa
401,us_run_02b,us_run_02b_9,beetle,us,42,female,yes_multiple,asian_southAsian,grad_degree,hinduism,hinduism,Marketing.,Very interesting topic. This has induced my interest to look for more info on the  nature of beetles and if their feelings.,1,#fddbd0,conscious,be aware of things,0,5201,5,5,United States of America
402,us_run_02b,us_run_02b_9,beetle,us,42,female,yes_multiple,asian_southAsian,grad_degree,hinduism,hinduism,Marketing.,Very interesting topic. This has induced my interest to look for more info on the  nature of beetles and if their feelings.,2,#f0d27e,pleasure,feel pleasure -- like when something feels really good,0,9140,5,5,United States of America
403,us_run_02b,us_run_02b_9,beetle,us,42,female,yes_multiple,asian_southAsian,grad_degree,hinduism,hinduism,Marketing.,Very interesting topic. This has induced my interest to look for more info on the  nature of beetles and if their feelings.,3,#a7dcf9,pain,feel pain,0,1330,5,5,United States of America
404,us_run_02b,us_run_02b_9,beetle,us,42,female,yes_multiple,asian_southAsian,grad_degree,hinduism,hinduism,Marketing.,Very interesting topic. This has induced my interest to look for more info on the  nature of beetles and if their feelings.,4,#f3d0d9,joy,feel joy,0,2431,3,3,United States of America
405,us_run_02b,us_run_02b_9,beetle,us,42,female,yes_multiple,asian_southAsian,grad_degree,hinduism,hinduism,Marketing.,Very interesting topic. This has induced my interest to look for more info on the  nature of beetles and if their feelings.,5,#fdcc93,reasoning,figure out how to do things,0,4458,4,4,United States of America
406,us_run_02b,us_run_02b_9,beetle,us,42,female,yes_multiple,asian_southAsian,grad_degree,hinduism,hinduism,Marketing.,Very interesting topic. This has induced my interest to look for more info on the  nature of beetles and if their feelings.,6,#b4dbe7,fear,feel scared,0,2268,4,4,United States of America
407,us_run_02b,us_run_02b_9,beetle,us,42,female,yes_multiple,asian_southAsian,grad_degree,hinduism,hinduism,Marketing.,Very interesting topic. This has induced my interest to look for more info on the  nature of beetles and if their feelings.,7,#bfd6fa,embarrassed,feel embarrassed,0,3032,2,2,United States of America
408,us_run_02b,us_run_02b_9,beetle,us,42,female,yes_multiple,asian_southAsian,grad_degree,hinduism,hinduism,Marketing.,Very interesting topic. This has induced my interest to look for more info on the  nature of beetles and if their feelings.,8,#aceab4,pride,feel proud,0,2422,2,2,United States of America
409,us_run_02b,us_run_02b_9,beetle,us,42,female,yes_multiple,asian_southAsian,grad_degree,hinduism,hinduism,Marketing.,Very interesting topic. This has induced my interest to look for more info on the  nature of beetles and if their feelings.,9,#dee7bc,guilt,feel guilty,0,1189,2,2,United States of America
410,us_run_02b,us_run_02b_9,beetle,us,42,female,yes_multiple,asian_southAsian,grad_degree,hinduism,hinduism,Marketing.,Very interesting topic. This has induced my interest to look for more info on the  nature of beetles and if their feelings.,10,#d1e48e,self_restraint,have self-control -- like when you stop yourself from doing something you shouldn't do,0,7358,4,4,United States of America
411,us_run_02b,us_run_02b_9,beetle,us,42,female,yes_multiple,asian_southAsian,grad_degree,hinduism,hinduism,Marketing.,Very interesting topic. This has induced my interest to look for more info on the  nature of beetles and if their feelings.,11,#c3e5b5,temperature,sense temperatures,0,2084,5,5,United States of America
412,us_run_02b,us_run_02b_9,beetle,us,42,female,yes_multiple,asian_southAsian,grad_degree,hinduism,hinduism,Marketing.,Very interesting topic. This has induced my interest to look for more info on the  nature of beetles and if their feelings.,12,#8cf2c3,emo_recog,understand how somebody else is feeling,0,4498,2,2,United States of America
413,us_run_02b,us_run_02b_9,beetle,us,42,female,yes_multiple,asian_southAsian,grad_degree,hinduism,hinduism,Marketing.,Very interesting topic. This has induced my interest to look for more info on the  nature of beetles and if their feelings.,13,#d2dcee,beliefs,have beliefs -- like when you think something is true,0,3907,1,1,United States of America
414,us_run_02b,us_run_02b_9,beetle,us,42,female,yes_multiple,asian_southAsian,grad_degree,hinduism,hinduism,Marketing.,Very interesting topic. This has induced my interest to look for more info on the  nature of beetles and if their feelings.,14,#e3dbc8,choices,make choices,0,2034,1,1,United States of America
415,us_run_02b,us_run_02b_9,beetle,us,42,female,yes_multiple,asian_southAsian,grad_degree,hinduism,hinduism,Marketing.,Very interesting topic. This has induced my interest to look for more info on the  nature of beetles and if their feelings.,15,#c2e9f5,hungry,get hungry,0,2810,6,6,United States of America
416,us_run_02b,us_run_02b_9,beetle,us,42,female,yes_multiple,asian_southAsian,grad_degree,hinduism,hinduism,Marketing.,Very interesting topic. This has induced my interest to look for more info on the  nature of beetles and if their feelings.,16,#f2e1bc,thoughts,have thoughts,0,3815,2,2,United States of America
417,us_run_02b,us_run_02b_9,beetle,us,42,female,yes_multiple,asian_southAsian,grad_degree,hinduism,hinduism,Marketing.,Very interesting topic. This has induced my interest to look for more info on the  nature of beetles and if their feelings.,17,#64f8f4,recognizing,recognize somebody else,0,4029,4,4,United States of America
418,us_run_02b,us_run_02b_9,beetle,us,42,female,yes_multiple,asian_southAsian,grad_degree,hinduism,hinduism,Marketing.,Very interesting topic. This has induced my interest to look for more info on the  nature of beetles and if their feelings.,18,#9be4c0,disrespected,get hurt feelings,0,4570,1,1,United States of America
419,us_run_02b,us_run_02b_9,beetle,us,42,female,yes_multiple,asian_southAsian,grad_degree,hinduism,hinduism,Marketing.,Very interesting topic. This has induced my interest to look for more info on the  nature of beetles and if their feelings.,19,#bae6c8,self_aware,be aware of itself,0,2655,4,4,United States of America
420,us_run_02b,us_run_02b_9,beetle,us,42,female,yes_multiple,asian_southAsian,grad_degree,hinduism,hinduism,Marketing.,Very interesting topic. This has induced my interest to look for more info on the  nature of beetles and if their feelings.,20,#ead1ec,depressed,feel sad,0,1942,2,2,United States of America
421,us_run_02b,us_run_02b_9,beetle,us,42,female,yes_multiple,asian_southAsian,grad_degree,hinduism,hinduism,Marketing.,Very interesting topic. This has induced my interest to look for more info on the  nature of beetles and if their feelings.,21,#79e3f9,free_will,decide what to do,0,4112,4,4,United States of America
422,us_run_02b,us_run_02b_9,beetle,us,42,female,yes_multiple,asian_southAsian,grad_degree,hinduism,hinduism,Marketing.,Very interesting topic. This has induced my interest to look for more info on the  nature of beetles and if their feelings.,22,#94ebda,depth,sense whether something is close by or far away,0,4070,5,5,United States of America
423,us_run_02b,us_run_02b_9,beetle,us,42,female,yes_multiple,asian_southAsian,grad_degree,hinduism,hinduism,Marketing.,Very interesting topic. This has induced my interest to look for more info on the  nature of beetles and if their feelings.,23,#e3d3af,safe,feel safe,0,2095,5,5,United States of America
424,us_run_02b,us_run_02b_9,beetle,us,42,female,yes_multiple,asian_southAsian,grad_degree,hinduism,hinduism,Marketing.,Very interesting topic. This has induced my interest to look for more info on the  nature of beetles and if their feelings.,24,#e3df8e,calm,feel calm,0,2634,5,5,United States of America
425,us_run_02b,us_run_02b_9,beetle,us,42,female,yes_multiple,asian_southAsian,grad_degree,hinduism,hinduism,Marketing.,Very interesting topic. This has induced my interest to look for more info on the  nature of beetles and if their feelings.,25,#dedfa2,personality,have a personality -- like when someone is shy and somebody else is silly,0,6401,2,2,United States of America
426,us_run_02b,us_run_02b_9,beetle,us,42,female,yes_multiple,asian_southAsian,grad_degree,hinduism,hinduism,Marketing.,Very interesting topic. This has induced my interest to look for more info on the  nature of beetles and if their feelings.,26,#a9e7e4,happy,feel happy,0,7129,3,3,United States of America
427,us_run_02b,us_run_02b_9,beetle,us,42,female,yes_multiple,asian_southAsian,grad_degree,hinduism,hinduism,Marketing.,Very interesting topic. This has induced my interest to look for more info on the  nature of beetles and if their feelings.,27,#fde096,angry,get angry,0,3084,4,4,United States of America
428,us_run_02b,us_run_02b_9,beetle,us,42,female,yes_multiple,asian_southAsian,grad_degree,hinduism,hinduism,Marketing.,Very interesting topic. This has induced my interest to look for more info on the  nature of beetles and if their feelings.,28,#5ef2da,remembering,remember things,0,2176,2,2,United States of America
429,us_run_02b,us_run_02b_9,beetle,us,42,female,yes_multiple,asian_southAsian,grad_degree,hinduism,hinduism,Marketing.,Very interesting topic. This has induced my interest to look for more info on the  nature of beetles and if their feelings.,29,#84eced,odors,smell things,0,5180,4,4,United States of America
430,us_run_02b,us_run_02b_9,beetle,us,42,female,yes_multiple,asian_southAsian,grad_degree,hinduism,hinduism,Marketing.,Very interesting topic. This has induced my interest to look for more info on the  nature of beetles and if their feelings.,30,#cde8e2,communicating,communicate with somebody else,0,1739,4,4,United States of America
431,us_run_02b,us_run_02b_9,beetle,us,42,female,yes_multiple,asian_southAsian,grad_degree,hinduism,hinduism,Marketing.,Very interesting topic. This has induced my interest to look for more info on the  nature of beetles and if their feelings.,31,#3eeaef,desires,have desires -- like when you really want something,0,3531,4,4,United States of America
432,us_run_02b,us_run_02b_9,beetle,us,42,female,yes_multiple,asian_southAsian,grad_degree,hinduism,hinduism,Marketing.,Very interesting topic. This has induced my interest to look for more info on the  nature of beetles and if their feelings.,32,#f2cdb9,sounds,hear sounds,0,2920,2,2,United States of America
433,us_run_02b,us_run_02b_9,beetle,us,42,female,yes_multiple,asian_southAsian,grad_degree,hinduism,hinduism,Marketing.,Very interesting topic. This has induced my interest to look for more info on the  nature of beetles and if their feelings.,33,#a9f2ce,love,feel love,0,5251,3,3,United States of America
434,us_run_02b,us_run_02b_9,beetle,us,42,female,yes_multiple,asian_southAsian,grad_degree,hinduism,hinduism,Marketing.,Very interesting topic. This has induced my interest to look for more info on the  nature of beetles and if their feelings.,34,#b5eaa1,goal,have goals -- like when you're working hard to do something or make something happen,0,4295,1,1,United States of America
435,us_run_02b,us_run_02b_9,beetle,us,42,female,yes_multiple,asian_southAsian,grad_degree,hinduism,hinduism,Marketing.,Very interesting topic. This has induced my interest to look for more info on the  nature of beetles and if their feelings.,35,#97eca5,seeing,see things,0,3459,4,4,United States of America
436,us_run_02b,us_run_02b_9,beetle,us,42,female,yes_multiple,asian_southAsian,grad_degree,hinduism,hinduism,Marketing.,Very interesting topic. This has induced my interest to look for more info on the  nature of beetles and if their feelings.,36,#d0d9ae,tired,feel tired,0,1647,4,4,United States of America
437,us_run_02b,us_run_02b_9,beetle,us,42,female,yes_multiple,asian_southAsian,grad_degree,hinduism,hinduism,Marketing.,Very interesting topic. This has induced my interest to look for more info on the  nature of beetles and if their feelings.,37,#cae5a1,computations,do math,0,7949,1,1,United States of America
438,us_run_02b,us_run_02b_9,beetle,us,42,female,yes_multiple,asian_southAsian,grad_degree,hinduism,hinduism,Marketing.,Very interesting topic. This has induced my interest to look for more info on the  nature of beetles and if their feelings.,38,#d0e0c8,intentions,make plans,0,1525,1,1,United States of America
439,us_run_02b,us_run_02b_9,beetle,us,42,female,yes_multiple,asian_southAsian,grad_degree,hinduism,hinduism,Marketing.,Very interesting topic. This has induced my interest to look for more info on the  nature of beetles and if their feelings.,39,#d5d0fa,morality,know what's nice and what's mean,0,3805,1,1,United States of America
440,us_run_02b,us_run_02b_9,beetle,us,42,female,yes_multiple,asian_southAsian,grad_degree,hinduism,hinduism,Marketing.,Very interesting topic. This has induced my interest to look for more info on the  nature of beetles and if their feelings.,40,#f3c5fa,nauseated,feel sick -- like when you feel like you might throw up,0,4162,3,3,United States of America
441,us_run_02b,us_run_02b_10,robot,us,29,female,yes_only,white,grad_some,christianity_catholic,christianity_catholic,Clerk,It was very direct.,1,#79e3f9,personality,have a personality -- like when someone is shy and somebody else is silly,0,3349,0,0,United States
442,us_run_02b,us_run_02b_10,robot,us,29,female,yes_only,white,grad_some,christianity_catholic,christianity_catholic,Clerk,It was very direct.,2,#dedfa2,joy,feel joy,0,1657,0,0,United States
443,us_run_02b,us_run_02b_10,robot,us,29,female,yes_only,white,grad_some,christianity_catholic,christianity_catholic,Clerk,It was very direct.,3,#8cf2c3,communicating,communicate with somebody else,0,1305,0,0,United States
444,us_run_02b,us_run_02b_10,robot,us,29,female,yes_only,white,grad_some,christianity_catholic,christianity_catholic,Clerk,It was very direct.,4,#f2e1bc,choices,make choices,0,940,0,0,United States
445,us_run_02b,us_run_02b_10,robot,us,29,female,yes_only,white,grad_some,christianity_catholic,christianity_catholic,Clerk,It was very direct.,5,#a9e7e4,fear,feel scared,0,823,0,0,United States
446,us_run_02b,us_run_02b_10,robot,us,29,female,yes_only,white,grad_some,christianity_catholic,christianity_catholic,Clerk,It was very direct.,6,#d5d0fa,emo_recog,understand how somebody else is feeling,0,1582,0,0,United States
447,us_run_02b,us_run_02b_10,robot,us,29,female,yes_only,white,grad_some,christianity_catholic,christianity_catholic,Clerk,It was very direct.,7,#cde8e2,seeing,see things,0,2238,3,3,United States
448,us_run_02b,us_run_02b_10,robot,us,29,female,yes_only,white,grad_some,christianity_catholic,christianity_catholic,Clerk,It was very direct.,8,#fddbd0,angry,get angry,0,1293,0,0,United States
449,us_run_02b,us_run_02b_10,robot,us,29,female,yes_only,white,grad_some,christianity_catholic,christianity_catholic,Clerk,It was very direct.,9,#c3e5b5,beliefs,have beliefs -- like when you think something is true,0,1348,0,0,United States
450,us_run_02b,us_run_02b_10,robot,us,29,female,yes_only,white,grad_some,christianity_catholic,christianity_catholic,Clerk,It was very direct.,10,#f2cdb9,intentions,make plans,0,1790,0,0,United States
451,us_run_02b,us_run_02b_10,robot,us,29,female,yes_only,white,grad_some,christianity_catholic,christianity_catholic,Clerk,It was very direct.,11,#f3c5fa,sounds,hear sounds,0,956,0,0,United States
452,us_run_02b,us_run_02b_10,robot,us,29,female,yes_only,white,grad_some,christianity_catholic,christianity_catholic,Clerk,It was very direct.,12,#b4dbe7,recognizing,recognize somebody else,0,3450,3,3,United States
453,us_run_02b,us_run_02b_10,robot,us,29,female,yes_only,white,grad_some,christianity_catholic,christianity_catholic,Clerk,It was very direct.,13,#d0d9ae,disrespected,get hurt feelings,0,1479,0,0,United States
454,us_run_02b,us_run_02b_10,robot,us,29,female,yes_only,white,grad_some,christianity_catholic,christianity_catholic,Clerk,It was very direct.,14,#94ebda,pain,feel pain,0,777,0,0,United States
455,us_run_02b,us_run_02b_10,robot,us,29,female,yes_only,white,grad_some,christianity_catholic,christianity_catholic,Clerk,It was very direct.,15,#84eced,calm,feel calm,0,693,0,0,United States
456,us_run_02b,us_run_02b_10,robot,us,29,female,yes_only,white,grad_some,christianity_catholic,christianity_catholic,Clerk,It was very direct.,16,#f3d0d9,remembering,remember things,0,942,0,0,United States
457,us_run_02b,us_run_02b_10,robot,us,29,female,yes_only,white,grad_some,christianity_catholic,christianity_catholic,Clerk,It was very direct.,17,#e3df8e,goal,have goals -- like when you're working hard to do something or make something happen,0,1703,0,0,United States
458,us_run_02b,us_run_02b_10,robot,us,29,female,yes_only,white,grad_some,christianity_catholic,christianity_catholic,Clerk,It was very direct.,18,#d1e48e,pleasure,feel pleasure -- like when something feels really good,0,1425,0,0,United States
459,us_run_02b,us_run_02b_10,robot,us,29,female,yes_only,white,grad_some,christianity_catholic,christianity_catholic,Clerk,It was very direct.,19,#3eeaef,nauseated,feel sick -- like when you feel like you might throw up,0,1410,0,0,United States
460,us_run_02b,us_run_02b_10,robot,us,29,female,yes_only,white,grad_some,christianity_catholic,christianity_catholic,Clerk,It was very direct.,20,#bce98d,free_will,decide what to do,0,2144,3,3,United States
461,us_run_02b,us_run_02b_10,robot,us,29,female,yes_only,white,grad_some,christianity_catholic,christianity_catholic,Clerk,It was very direct.,21,#aceab4,safe,feel safe,0,1496,0,0,United States
462,us_run_02b,us_run_02b_10,robot,us,29,female,yes_only,white,grad_some,christianity_catholic,christianity_catholic,Clerk,It was very direct.,22,#bfd6fa,hungry,get hungry,0,731,0,0,United States
463,us_run_02b,us_run_02b_10,robot,us,29,female,yes_only,white,grad_some,christianity_catholic,christianity_catholic,Clerk,It was very direct.,23,#fdcc93,computations,do math,0,2241,3,3,United States
464,us_run_02b,us_run_02b_10,robot,us,29,female,yes_only,white,grad_some,christianity_catholic,christianity_catholic,Clerk,It was very direct.,24,#cae5a1,happy,feel happy,0,1094,0,0,United States
465,us_run_02b,us_run_02b_10,robot,us,29,female,yes_only,white,grad_some,christianity_catholic,christianity_catholic,Clerk,It was very direct.,25,#e3dbc8,self_aware,be aware of itself,0,2026,0,0,United States
466,us_run_02b,us_run_02b_10,robot,us,29,female,yes_only,white,grad_some,christianity_catholic,christianity_catholic,Clerk,It was very direct.,26,#f0d9a2,reasoning,figure out how to do things,0,2343,3,3,United States
467,us_run_02b,us_run_02b_10,robot,us,29,female,yes_only,white,grad_some,christianity_catholic,christianity_catholic,Clerk,It was very direct.,27,#a7dcf9,pride,feel proud,0,1219,0,0,United States
468,us_run_02b,us_run_02b_10,robot,us,29,female,yes_only,white,grad_some,christianity_catholic,christianity_catholic,Clerk,It was very direct.,28,#fde096,morality,know what's nice and what's mean,0,1701,0,0,United States
469,us_run_02b,us_run_02b_10,robot,us,29,female,yes_only,white,grad_some,christianity_catholic,christianity_catholic,Clerk,It was very direct.,29,#c2e9f5,embarrassed,feel embarrassed,0,871,0,0,United States
470,us_run_02b,us_run_02b_10,robot,us,29,female,yes_only,white,grad_some,christianity_catholic,christianity_catholic,Clerk,It was very direct.,30,#ead1ec,thoughts,have thoughts,0,637,0,0,United States
471,us_run_02b,us_run_02b_10,robot,us,29,female,yes_only,white,grad_some,christianity_catholic,christianity_catholic,Clerk,It was very direct.,31,#97eca5,conscious,be aware of things,0,1293,0,0,United States
472,us_run_02b,us_run_02b_10,robot,us,29,female,yes_only,white,grad_some,christianity_catholic,christianity_catholic,Clerk,It was very direct.,32,#bae6c8,love,feel love,0,798,0,0,United States
473,us_run_02b,us_run_02b_10,robot,us,29,female,yes_only,white,grad_some,christianity_catholic,christianity_catholic,Clerk,It was very direct.,33,#a9f2ce,guilt,feel guilty,0,807,0,0,United States
474,us_run_02b,us_run_02b_10,robot,us,29,female,yes_only,white,grad_some,christianity_catholic,christianity_catholic,Clerk,It was very direct.,34,#f0d27e,odors,smell things,0,980,0,0,United States
475,us_run_02b,us_run_02b_10,robot,us,29,female,yes_only,white,grad_some,christianity_catholic,christianity_catholic,Clerk,It was very direct.,35,#e3d3af,desires,have desires -- like when you really want something,0,1229,0,0,United States
476,us_run_02b,us_run_02b_10,robot,us,29,female,yes_only,white,grad_some,christianity_catholic,christianity_catholic,Clerk,It was very direct.,36,#b5eaa1,depth,sense whether something is close by or far away,0,1261,0,0,United States
477,us_run_02b,us_run_02b_10,robot,us,29,female,yes_only,white,grad_some,christianity_catholic,christianity_catholic,Clerk,It was very direct.,37,#5ef2da,self_restraint,have self-control -- like when you stop yourself from doing something you shouldn't do,0,1522,0,0,United States
478,us_run_02b,us_run_02b_10,robot,us,29,female,yes_only,white,grad_some,christianity_catholic,christianity_catholic,Clerk,It was very direct.,38,#9be4c0,temperature,sense temperatures,0,996,0,0,United States
479,us_run_02b,us_run_02b_10,robot,us,29,female,yes_only,white,grad_some,christianity_catholic,christianity_catholic,Clerk,It was very direct.,39,#d0e0c8,tired,feel tired,0,872,0,0,United States
480,us_run_02b,us_run_02b_10,robot,us,29,female,yes_only,white,grad_some,christianity_catholic,christianity_catholic,Clerk,It was very direct.,40,#dee7bc,depressed,feel sad,0,584,0,0,United States
481,us_run_02b,us_run_02b_11,beetle,us,57,female,yes_only,white,grad_degree,christianity_protestant,none,unemployed  librarian,NA,1,#cae5a1,angry,get angry,0,3490,1,1,US
482,us_run_02b,us_run_02b_11,beetle,us,57,female,yes_only,white,grad_degree,christianity_protestant,none,unemployed  librarian,NA,2,#fdcc93,love,feel love,0,4442,1,1,US
483,us_run_02b,us_run_02b_11,beetle,us,57,female,yes_only,white,grad_degree,christianity_protestant,none,unemployed  librarian,NA,3,#f3d0d9,desires,have desires -- like when you really want something,0,3332,4,4,US
484,us_run_02b,us_run_02b_11,beetle,us,57,female,yes_only,white,grad_degree,christianity_protestant,none,unemployed  librarian,NA,4,#b5eaa1,nauseated,feel sick -- like when you feel like you might throw up,0,4229,3,3,US
485,us_run_02b,us_run_02b_11,beetle,us,57,female,yes_only,white,grad_degree,christianity_protestant,none,unemployed  librarian,NA,5,#a9e7e4,emo_recog,understand how somebody else is feeling,0,2420,0,0,US
486,us_run_02b,us_run_02b_11,beetle,us,57,female,yes_only,white,grad_degree,christianity_protestant,none,unemployed  librarian,NA,6,#bce98d,communicating,communicate with somebody else,0,5013,5,5,US
487,us_run_02b,us_run_02b_11,beetle,us,57,female,yes_only,white,grad_degree,christianity_protestant,none,unemployed  librarian,NA,7,#e3df8e,happy,feel happy,0,2565,1,1,US
488,us_run_02b,us_run_02b_11,beetle,us,57,female,yes_only,white,grad_degree,christianity_protestant,none,unemployed  librarian,NA,8,#c2e9f5,pleasure,feel pleasure -- like when something feels really good,0,2748,5,5,US
489,us_run_02b,us_run_02b_11,beetle,us,57,female,yes_only,white,grad_degree,christianity_protestant,none,unemployed  librarian,NA,9,#f0d27e,temperature,sense temperatures,0,2661,6,6,US
490,us_run_02b,us_run_02b_11,beetle,us,57,female,yes_only,white,grad_degree,christianity_protestant,none,unemployed  librarian,NA,10,#e3dbc8,personality,have a personality -- like when someone is shy and somebody else is silly,0,2901,1,1,US
491,us_run_02b,us_run_02b_11,beetle,us,57,female,yes_only,white,grad_degree,christianity_protestant,none,unemployed  librarian,NA,11,#5ef2da,computations,do math,0,1779,0,0,US
492,us_run_02b,us_run_02b_11,beetle,us,57,female,yes_only,white,grad_degree,christianity_protestant,none,unemployed  librarian,NA,12,#e3d3af,sounds,hear sounds,0,3861,4,4,US
493,us_run_02b,us_run_02b_11,beetle,us,57,female,yes_only,white,grad_degree,christianity_protestant,none,unemployed  librarian,NA,13,#f2cdb9,free_will,decide what to do,0,3581,2,2,US
494,us_run_02b,us_run_02b_11,beetle,us,57,female,yes_only,white,grad_degree,christianity_protestant,none,unemployed  librarian,NA,14,#3eeaef,safe,feel safe,0,2557,1,1,US
495,us_run_02b,us_run_02b_11,beetle,us,57,female,yes_only,white,grad_degree,christianity_protestant,none,unemployed  librarian,NA,15,#d5d0fa,tired,feel tired,0,2349,0,0,US
496,us_run_02b,us_run_02b_11,beetle,us,57,female,yes_only,white,grad_degree,christianity_protestant,none,unemployed  librarian,NA,16,#cde8e2,hungry,get hungry,0,1603,6,6,US
497,us_run_02b,us_run_02b_11,beetle,us,57,female,yes_only,white,grad_degree,christianity_protestant,none,unemployed  librarian,NA,17,#fde096,disrespected,get hurt feelings,0,1837,1,1,US
498,us_run_02b,us_run_02b_11,beetle,us,57,female,yes_only,white,grad_degree,christianity_protestant,none,unemployed  librarian,NA,18,#f2e1bc,calm,feel calm,0,5181,1,1,US
